time,ax,ay,az
0.0,0.004498,0.253288,10.220206
0.01,-0.065359,0.164443,9.971114
0.02,0.118949,0.371427,10.008217
0.03,0.369707,0.191116,10.165401
0.04,0.338738,0.168183,9.774351
0.05,0.037784,0.382929,10.121618
0.06,-0.237334,0.189454,10.066181
0.07,0.008773,-0.016295,10.254852
0.08,0.125305,0.30358,9.990533
0.09,0.15846,0.39654,10.071903
0.1,0.262502,0.282381,10.145649
0.11,0.248468,0.187993,10.025352
0.12,0.262227,0.284598,9.974528
0.13,0.067322,0.350136,10.035526
0.14,0.094817,0.094352,9.771632
0.15,0.021653,-0.056198,9.975382
0.16,0.233109,0.229291,10.264409
0.17,0.333762,0.404594,9.878266
0.18,0.373815,0.076844,9.960246
0.19,-0.153717,0.052773,10.104669
0.2,0.30173,0.271954,10.282479
0.21,0.083032,0.202724,9.926513
0.22,0.335591,0.128893,10.035875
0.23,0.097003,0.40175,10.399046
0.24,0.371232,0.120301,10.18329
0.25,0.17019,0.267867,10.274292
0.26,0.179101,0.332344,9.961011
0.27,0.398761,0.166951,10.035789
0.28,0.200157,0.315443,10.334591
0.29,0.430833,0.279853,10.213553
0.3,0.401863,0.197038,10.255009
0.31,0.276884,0.102658,10.273295
0.32,0.227981,0.36241,10.300278
0.33,0.489299,0.272153,10.075527
0.34,0.423645,0.23479,9.947433
0.35,0.546225,0.120165,10.016164
0.36,0.03856,0.017802,10.064519
0.37,0.256156,-0.204657,9.73195
0.38,0.230181,0.15072,10.221808
0.39,0.3737,0.008522,10.291478
0.4,0.152323,0.077872,10.150546
0.41,0.170708,0.400772,10.008438
0.42,0.294754,0.204221,10.143285
0.43,0.003379,0.069641,9.816602
0.44,-0.021442,-0.026757,9.797147
0.45,0.258052,0.091387,10.422391
0.46,0.667939,0.096058,9.746122
0.47,0.280823,-0.11173,10.258175
0.48,0.200777,-0.106591,10.356154
0.49,0.314931,-0.045645,10.098294
0.5,0.329462,-0.207581,10.085914
0.51,0.215487,-0.210011,10.12576
0.52,0.12485,-0.288744,9.703504
0.53,-0.017863,0.129466,9.973431
0.54,0.343187,-0.345914,10.339151
0.55,0.127787,-0.351769,10.100366
0.56,0.259442,-0.508171,10.046523
0.57,0.336354,-0.083338,10.083628
0.58,0.121028,-0.327922,9.940074
0.59,-0.063868,-0.081398,9.839614
0.6,0.110553,-0.210877,10.225788
0.61,0.109502,-0.020535,9.884061
0.62,0.195139,-0.346162,10.449263
0.63,0.022897,-0.21631,9.989069
0.64,0.00284,-0.064223,10.104039
0.65,0.025864,-0.053721,10.334651
0.66,0.126735,-0.077304,10.113549
0.67,0.193059,-0.160627,9.774484
0.68,0.395068,-0.250357,9.911928
0.69,0.321318,-0.16085,9.703871
0.7,-0.001207,-0.446078,9.970141
0.71,-0.102168,-0.306613,9.814988
0.72,-0.101054,-0.038007,9.954911
0.73,-0.217615,-0.109932,10.238657
0.74,-0.015214,-0.429271,10.29106
0.75,-0.195491,-0.190682,9.66157
0.76,-0.225955,-0.375165,9.652812
0.77,-0.228928,-0.278236,9.98003
0.78,0.047764,-0.008175,9.923702
0.79,-0.110453,-0.497511,9.710262
0.8,-0.314845,-0.409634,9.905345
0.81,0.009583,-0.188061,9.935702
0.82,0.044168,-0.132351,9.873377
0.83,-0.215137,-0.239381,10.150486
0.84,-0.275085,-0.011217,10.11385
0.85,-0.299479,-0.209516,9.889846
0.86,-0.139584,-0.124135,10.135239
0.87,-0.053036,-0.145286,10.064109
0.88,-0.174522,-0.180857,9.915094
0.89,-0.411301,-0.018727,9.422464
0.9,-0.059066,-0.239615,9.623899
0.91,-0.235654,0.088092,9.800069
0.92,-0.266033,0.051873,9.954971
0.93,-0.179154,0.067475,9.620127
0.94,-0.094748,0.276173,10.053638
0.95,-0.42902,0.010849,10.112904
0.96,-0.46592,-0.019852,9.926733
0.97,-0.277833,0.045779,9.928225
0.98,-0.281495,-0.071971,9.96315
0.99,-0.145615,-0.009048,9.89606
1.0,-0.09514,-0.10684,9.830531
1.01,-0.364573,0.23587,9.785438
1.02,-0.243107,-0.104896,9.971171
1.03,-0.226118,-0.062889,9.957919
1.04,-0.213619,0.041534,9.539651
1.05,-0.541845,-0.078633,9.778319
1.06,-0.221368,0.002251,9.86746
1.07,-0.424711,0.059443,9.503423
1.08,-0.213999,0.244454,9.879651
1.09,-0.472511,-0.07994,9.726219
1.1,-0.288845,0.070529,10.106818
1.11,-0.342139,0.204861,9.879361
1.12,0.026268,0.245546,9.759152
1.13,-0.424629,0.569646,9.815884
1.14,-0.432257,0.409471,9.750126
1.15,-0.062667,0.44671,9.441663
1.16,-0.150406,-0.023157,9.705127
1.17,-0.236615,0.264957,9.411044
1.18,-0.344403,0.315949,9.646124
1.19,-0.439037,0.044395,9.723025
1.2,-0.324393,0.19786,9.468024
1.21,-0.332928,0.359714,9.670047
1.22,-0.349996,0.372289,9.945635
1.23,-0.313465,0.436488,9.573717
1.24,-0.31176,0.267335,9.494412
1.25,-0.074081,0.168075,9.858573
1.26,-0.417993,0.341026,9.693849
1.27,-0.140007,0.2804,9.642688
1.28,-0.148411,0.3196,9.738975
1.29,-0.187808,-0.031511,9.666385
1.3,-0.066842,0.246218,9.492481
1.31,-0.091195,0.306188,9.418303
1.32,-0.128843,0.238935,9.942809
1.33,0.03342,0.213869,9.699122
1.34,-0.488352,0.208226,9.890652
1.35,0.22104,0.090543,9.559843
1.36,0.080961,0.344314,9.821356
1.37,0.17661,0.163291,9.451335
1.38,-0.200265,-0.177563,9.303641
1.39,-0.044906,0.098603,9.667338
1.4,0.004412,0.066117,9.746145
1.41,-0.084681,0.121921,9.761829
1.42,0.011277,0.062983,9.644102
1.43,0.03709,0.132531,9.440337
1.44,-0.168945,0.167028,9.627542
1.45,0.135508,0.006627,9.620078
1.46,0.136238,0.120732,9.535737
1.47,-0.051048,0.199816,9.462835
1.48,-0.131347,0.033571,9.336566
1.49,0.095718,0.172581,9.572408
1.5,-0.033935,0.25854,9.574448
1.51,0.145489,-0.09517,9.262974
1.52,-0.001595,0.076589,9.873376
1.53,0.354071,0.323539,9.261154
1.54,0.038093,0.040141,9.393949
1.55,0.018627,-0.13401,9.556404
1.56,0.167515,0.049135,9.576781
1.57,-0.064987,-0.063392,9.356212
1.58,0.055485,-0.242018,9.331071
1.59,-0.052865,-0.09127,9.478429
1.6,0.237205,-0.251213,9.488615
1.61,0.353933,-0.339053,9.748244
1.62,0.15933,0.024525,9.293838
1.63,0.4205,-0.469266,9.497359
1.64,0.11294,0.079025,9.453508
1.65,0.178166,-0.057053,9.547683
1.66,0.389525,0.070465,9.427405
1.67,0.369394,0.085185,9.664742
1.68,0.336607,-0.0064,9.59377
1.69,0.440299,-0.249029,9.705753
1.7,0.271213,-0.287031,9.490386
1.71,0.328964,-0.185591,9.463744
1.72,0.185381,-0.061486,9.392636
1.73,0.579944,0.06611,9.194794
1.74,0.22644,-0.375116,9.528733
1.75,0.26436,-0.108575,9.539805
1.76,0.329523,-0.229433,9.558422
1.77,0.399357,-0.233466,9.385869
1.78,0.398437,-0.145869,9.246373
1.79,-0.106428,-0.632429,9.308435
1.8,0.564461,-0.244011,9.494409
1.81,0.539766,-0.435036,9.652442
1.82,0.484452,-0.139771,9.168126
1.83,0.316307,-0.202709,9.743188
1.84,0.478644,0.00559,9.071994
1.85,0.327399,-0.022301,9.782526
1.86,0.32157,-0.334232,9.264744
1.87,0.384349,-0.198883,9.714822
1.88,0.356085,0.005879,9.371603
1.89,0.422594,-0.158993,9.706871
1.9,-0.059866,-0.116565,9.036305
1.91,0.242969,0.029292,9.559001
1.92,0.066038,0.012763,9.638737
1.93,0.381235,-0.170286,9.510691
1.94,0.096701,-0.029444,9.563092
1.95,0.182593,-0.045262,9.64629
1.96,0.356531,0.083393,9.494393
1.97,0.402978,-0.143932,9.379983
1.98,0.329411,0.041786,9.227577
1.99,0.299791,-0.196496,9.633317
2.0,-0.001757,-0.053059,9.664545
2.01,0.012923,0.024014,9.594318
2.02,-0.046727,0.006431,9.60991
2.03,-0.015527,-0.036965,9.519549
2.04,0.154863,-0.074445,9.395562
2.05,0.269974,0.050551,9.684069
2.06,0.257215,0.034622,9.394105
2.07,-0.183238,-0.012682,9.505414
2.08,0.076434,0.086194,9.58578
2.09,0.028013,-0.225996,9.738983
2.1,-0.291371,0.07621,8.967036
2.11,0.167685,-0.229508,9.652792
2.12,0.150407,-0.092354,9.418109
2.13,-0.074198,0.103434,9.592701
2.14,-0.042659,0.059707,9.165967
2.15,0.0124,-0.172984,9.373701
2.16,0.039471,-0.189399,9.723071
2.17,-0.133035,0.054773,9.726803
2.18,-0.17765,-0.15443,9.484549
2.19,-0.224638,-0.0762,9.829449
2.2,0.148732,0.051983,9.526079
2.21,0.095625,0.282273,9.589683
2.22,-0.263704,-0.013852,9.385297
2.23,-0.246558,-0.152203,9.456152
2.24,-0.283403,0.382163,9.617618
2.25,-0.358947,0.317742,9.129361
2.26,0.14484,0.252608,9.569844
2.27,-0.269306,0.201228,9.635834
2.28,-0.056247,0.527816,9.561976
2.29,-0.23167,0.269218,9.825101
2.3,-0.224154,0.240031,9.484104
2.31,-0.244548,0.206131,9.532918
2.32,-0.15567,0.302899,9.508282
2.33,-0.247704,0.131952,9.531323
2.34,-0.11692,0.411934,9.561699
2.35,-0.063723,0.442813,9.495264
2.36,-0.33795,0.440101,9.803496
2.37,-0.221653,0.242966,9.85768
2.38,-0.504226,0.30648,9.818163
2.39,-0.343878,0.05051,9.745798
2.4,-0.268713,0.059764,9.447621
2.41,-0.306655,0.361079,9.614573
2.42,-0.297953,0.379692,10.009672
2.43,-0.208399,-0.022922,9.601343
2.44,-0.180808,0.041304,9.716461
2.45,-0.611672,0.088894,9.382338
2.46,-0.26792,0.274402,9.7549
2.47,-0.34461,0.151079,9.542067
2.48,-0.371107,0.03361,9.621992
2.49,-0.090316,0.152913,9.179553
2.5,-0.563513,0.141738,9.672511
2.51,-0.307687,0.318046,9.849732
2.52,-0.082989,0.131909,9.863333
2.53,-0.286595,0.380501,9.629925
2.54,-0.437852,-0.156438,9.845553
2.55,-0.325233,0.207263,9.886573
2.56,-0.023946,0.441647,9.581416
2.57,-0.110104,0.093999,9.900526
2.58,-0.359322,0.059732,9.672792
2.59,-0.04657,-0.010915,9.500692
2.6,-0.17586,-0.143217,9.620064
2.61,-0.646919,0.22031,9.791497
2.62,-0.275099,-0.070669,9.487439
2.63,0.021497,0.16975,9.394476
2.64,-0.268408,0.078499,9.842077
2.65,-0.008949,0.104311,9.841397
2.66,-0.443908,-0.150191,9.735536
2.67,-0.416309,0.028796,9.807477
2.68,-0.040909,-0.035947,9.915591
2.69,-0.073389,-0.021951,9.496086
2.7,-0.195145,-0.441333,9.326799
2.71,-0.050549,0.000964,9.963104
2.72,-0.25908,0.243782,9.890557
2.73,-0.328105,-0.295577,9.92482
2.74,-0.089814,0.025096,9.686184
2.75,-0.179234,-0.164497,9.876964
2.76,-0.06181,-0.296584,10.039974
2.77,-0.081223,-0.257903,9.892478
2.78,-0.150118,0.055373,9.768458
2.79,0.195322,-0.130485,9.908292
2.8,-0.230263,-0.202612,10.116334
2.81,-0.038801,-0.429041,9.910061
2.82,-0.062777,-0.119185,9.684191
2.83,0.010373,-0.04778,10.20339
2.84,-0.0156,-0.171808,9.845553
2.85,0.152535,-0.395056,9.78164
2.86,0.050668,-0.150702,9.800999
2.87,-0.080644,0.044106,10.009068
2.88,-0.123913,-0.263286,9.816078
2.89,-0.072205,-0.087689,9.636275
2.9,-0.065775,-0.279296,10.018442
2.91,0.170907,-0.274955,9.982077
2.92,0.069497,-0.218645,9.966992
2.93,0.153818,-0.304107,9.770546
2.94,-0.099717,-0.318267,9.887547
2.95,0.071761,-0.24585,10.047546
2.96,0.203605,-0.101925,9.991838
2.97,0.298872,-0.231692,10.036308
2.98,-0.06847,-0.246126,10.25978
2.99,0.400683,-0.206993,10.03784
3.0,0.392483,0.006285,10.085357
3.01,0.339495,-0.37352,9.834303
3.02,0.386789,-0.118784,9.802524
3.03,0.149986,-0.086087,10.134582
3.04,0.096445,-0.2292,9.933182
3.05,0.23777,-0.011774,9.708174
3.06,0.278697,-0.046199,10.116767
3.07,0.147814,-0.051908,10.22046
3.08,0.337569,-0.357892,9.848563
3.09,0.467717,-0.236711,9.734325
3.1,0.397202,-0.245242,10.306827
3.11,0.276076,-0.024819,10.288627
3.12,-0.091494,0.014051,10.242811
3.13,0.049232,-0.146555,9.91482
3.14,0.270026,-0.133213,10.015781
3.15,0.384403,0.25062,10.145485
3.16,0.078172,-0.038941,10.238044
3.17,0.308711,0.013426,10.058305
3.18,0.403299,-0.07658,10.563167
3.19,0.288559,0.172401,10.198734
3.2,0.206226,0.048633,10.117614
3.21,0.07756,0.028101,10.07067
3.22,0.415787,0.04855,10.143651
3.23,0.201116,-0.032819,10.175183
3.24,0.54503,-0.098525,9.907094
3.25,0.322866,0.057983,9.896651
3.26,0.349344,0.303666,9.982091
3.27,0.415936,0.040806,10.061224
3.28,0.232895,0.255427,10.151832
3.29,0.354004,0.051344,10.044652
3.3,0.182099,-0.158835,10.123173
3.31,0.153717,0.056244,9.874105
3.32,0.131437,-0.097153,10.350722
3.33,0.188596,0.26984,9.886687
3.34,0.564071,-0.106743,10.193059
3.35,0.11256,0.190865,9.956261
3.36,0.332537,0.075496,10.214075
3.37,0.198303,0.103707,10.424788
3.38,0.05338,0.335601,10.293232
3.39,0.333497,0.195537,9.988139
3.4,0.129849,0.215806,10.191692
3.41,0.128606,0.212638,10.086081
3.42,0.347817,0.172997,9.915431
3.43,0.13549,0.117596,10.332443
3.44,0.197502,-0.008801,10.574504
3.45,0.148547,0.302017,10.388942
3.46,0.12712,0.292276,9.937893
3.47,-0.06851,0.420587,10.53144
3.48,0.246103,0.310388,10.04707
3.49,0.138458,0.182676,10.085097
3.5,0.214773,0.225551,10.025486
3.51,0.097369,0.334036,10.188472
3.52,0.225701,0.411086,9.790678
3.53,0.077104,0.182758,9.98469
3.54,0.247168,0.405299,10.370674
3.55,-0.107597,0.223473,10.626343
3.56,-0.103516,0.130136,9.760633
3.57,0.269948,0.127623,10.348974
3.58,0.112751,0.173914,9.941076
3.59,0.255359,0.207456,10.074756
3.6,0.054339,0.373638,9.929203
3.61,-0.092361,0.475658,10.336346
3.62,0.216495,0.15111,10.258175
3.63,-0.349208,-0.034091,10.175572
3.64,0.030871,0.074014,10.29228
3.65,-0.482606,0.106618,10.263783
3.66,0.112003,0.182101,9.945708
3.67,-0.280172,-0.140986,10.207592
3.68,-0.183804,0.274507,10.032085
3.69,-0.294505,-0.031562,10.007681
3.7,-0.071925,0.136294,10.233948
3.71,-0.199447,0.058533,10.379874
3.72,0.024938,-0.036847,10.124409
3.73,-0.291529,0.25076,10.433229
3.74,-0.379724,-0.03179,10.074333
3.75,-0.282759,-0.121612,9.826037
3.76,0.024435,0.0874,9.885256
3.77,-0.073494,0.125358,9.841043
3.78,-0.064688,-0.050412,10.195902
3.79,-0.328651,-0.007265,10.46634
3.8,-0.451253,0.095551,10.326587
3.81,-0.046882,-0.094026,10.277022
3.82,-0.473071,-0.113019,10.404638
3.83,-0.271331,0.028625,10.229038
3.84,-0.377295,-0.124733,10.308542
3.85,-0.270954,-0.231105,10.117789
3.86,-0.542841,-0.128041,9.936275
3.87,-0.162496,-0.283761,9.867689
3.88,-0.087605,-0.16103,10.01652
3.89,-0.138987,-0.016776,9.769987
3.9,-0.464547,-0.355231,10.015796
3.91,-0.233863,-0.189048,10.015923
3.92,-0.32548,-0.102302,10.229148
3.93,-0.300092,-0.209397,10.038619
3.94,-0.050715,0.000376,10.290096
3.95,-0.363943,-0.207451,9.974342
3.96,-0.19524,-0.16417,9.870429
3.97,-0.556795,-0.021007,10.371464
3.98,-0.281563,-0.156515,10.251986
3.99,-0.149475,-0.24104,10.062464
4.0,-0.307851,-0.306937,9.925695
4.01,-0.188743,-0.268171,10.438948
4.02,-0.397655,-0.196011,10.02877
4.03,-0.340575,-0.36471,10.175541
4.04,-0.284888,-0.052071,10.283363
4.05,-0.339596,0.095937,10.087577
4.06,-0.116501,-0.246918,9.793227
4.07,-0.079838,-0.50333,9.963175
4.08,-0.138736,-0.127564,9.898812
4.09,-0.607246,-0.224647,9.980246
4.1,-0.266404,-0.136435,10.037679
4.11,-0.083135,-0.2366,9.902538
4.12,-0.224342,-0.083576,9.90133
4.13,-0.223174,-0.327394,9.988306
4.14,-0.039094,-0.149924,9.683045
4.15,-0.020648,-0.156953,9.888504
4.16,-0.067773,-0.135993,9.992555
4.17,-0.36944,-0.069812,9.968356
4.18,-0.302362,-0.039671,9.79348
4.19,-0.063603,-0.337716,9.83216
4.2,-0.422469,-0.037341,9.645276
4.21,0.147902,-0.118092,9.770012
4.22,-0.065085,-0.16319,9.566863
4.23,-0.178388,-0.079523,9.853482
4.24,-0.139645,-0.073671,9.97284
4.25,0.134124,-0.082133,9.752392
4.26,-0.222803,-0.347831,9.469892
4.27,-0.309167,-0.049353,10.026207
4.28,-0.156527,-0.086534,9.9025
4.29,0.049957,0.008986,9.700853
4.3,0.259142,-0.036923,9.686234
4.31,0.214572,0.304173,10.006464
4.32,-0.020389,-0.030539,9.916973
4.33,0.10053,-0.215502,9.958653
4.34,0.123143,0.01272,9.552712
4.35,0.116942,-0.025367,9.916616
4.36,-0.199123,0.086409,9.622843
4.37,0.061614,0.001462,9.550471
4.38,0.239397,0.17748,9.793355
4.39,0.41268,0.093558,9.879266
4.4,0.204185,0.161602,9.791898
4.41,0.319882,0.341962,9.793506
4.42,0.299483,0.143314,9.56258
4.43,0.120869,-0.055072,9.41082
4.44,-0.012034,0.084236,9.840414
4.45,0.368146,-0.039634,9.796248
4.46,0.485964,0.0888,9.657802
4.47,0.154055,-0.340241,9.658527
4.48,0.405009,0.321825,9.750478
4.49,0.257277,-0.018211,9.651468
4.5,0.035736,0.320451,9.847406
4.51,0.257251,0.123172,9.848782
4.52,0.172008,0.185206,9.691993
4.53,0.330213,0.475512,9.660771
4.54,0.329729,0.189553,9.743239
4.55,0.178568,0.09481,9.170505
4.56,0.084097,0.168994,9.671337
4.57,0.216009,0.060146,9.387378
4.58,0.521077,0.376107,9.746756
4.59,0.115858,0.332291,9.827546
4.6,0.403378,0.204921,9.200491
4.61,0.386653,0.364643,9.774448
4.62,0.215726,0.337834,9.628207
4.63,0.173072,0.204587,9.730795
4.64,0.389068,0.279671,9.814781
4.65,0.29565,0.203707,9.669729
4.66,0.223638,0.135938,9.649439
4.67,0.368608,-0.153322,9.409716
4.68,0.539909,0.180576,9.45626
4.69,0.479524,0.214802,9.968469
4.7,0.30985,-0.000729,9.78164
4.71,-0.220023,0.326373,9.680639
4.72,0.247077,0.157516,9.419643
4.73,0.127675,0.244808,9.650932
4.74,0.242505,0.212804,9.503695
4.75,0.214916,0.144556,9.977824
4.76,0.213681,0.063724,9.82132
4.77,0.41577,0.031261,9.417261
4.78,0.212901,-0.128302,9.430548
4.79,0.198654,0.333261,9.517295
4.8,0.302643,0.149847,9.785601
4.81,0.063897,-0.05771,9.747092
4.82,0.1628,0.159189,9.152282
4.83,-0.001552,-0.113147,9.615976
4.84,0.28752,0.13735,9.745575
4.85,0.218603,0.097894,9.493791
4.86,0.483572,-0.078371,9.627593
4.87,-0.082715,-0.232629,9.865911
4.88,0.296601,-0.084358,9.771637
4.89,-0.123471,-0.00826,9.605045
4.9,-0.021638,-0.272669,9.574549
4.91,-0.206179,-0.15588,9.503464
4.92,0.113747,0.130283,9.607405
4.93,0.131813,-0.089962,9.468118
4.94,0.029923,0.304258,9.689951
4.95,-0.26231,-0.039948,9.312512
4.96,-0.027372,-0.1471,9.383865
4.97,0.058851,-0.265489,9.419396
4.98,-0.110835,-0.314207,9.710521
4.99,0.008956,-0.131411,9.630534
5.0,0.162108,-0.237342,9.53889
5.01,-0.099272,-0.223873,9.545245
5.02,-0.189421,-0.157549,9.120675
5.03,-0.051602,-0.297242,9.594771
5.04,0.219826,-0.074369,9.276112
5.05,0.010319,-0.169966,9.350582
5.06,-0.304657,-0.307513,10.030412
5.07,0.112478,-0.190759,9.556001
5.08,-0.165512,-0.574834,9.490379
5.09,-0.150737,-0.178368,9.422785
5.1,-0.321064,-0.185506,9.686138
5.11,-0.117296,-0.553111,9.264195
5.12,-0.44421,-0.526056,9.35791
5.13,-0.331324,-0.296532,9.666001
5.14,-0.08208,-0.346354,9.457521
5.15,-0.16487,-0.260069,9.527293
5.16,-0.307184,-0.243291,9.347324
5.17,-0.233089,-0.020799,9.561183
5.18,-0.108879,-0.302551,9.359382
5.19,-0.165087,-0.15505,9.165292
5.2,-0.131834,-0.313655,9.633354
5.21,-0.417542,-0.180677,9.292793
5.22,-0.353198,-0.296445,9.22692
5.23,0.036005,-0.426276,9.276985
5.24,-0.320556,-0.314657,9.466001
5.25,-0.336241,-0.158597,9.321906
5.26,-0.254621,-0.381862,9.790676
5.27,-0.245152,-0.187858,9.658129
5.28,-0.432516,-0.142633,9.480261
5.29,-0.660399,-0.130672,9.293651
5.3,-0.338824,-0.060077,9.635021
5.31,-0.296469,0.14454,9.520324
5.32,-0.561391,-0.340428,9.339619
5.33,-0.257864,-0.194774,9.510476
5.34,-0.248818,-0.13428,9.507586
5.35,-0.153951,-0.188831,9.334355
5.36,-0.464642,0.075019,9.221902
5.37,-0.244414,0.099493,9.692176
5.38,-0.215734,0.262012,9.608144
5.39,-0.075211,-0.081262,9.455676
5.4,-0.166913,-0.218588,9.577719
5.41,-0.133502,-0.066607,9.646137
5.42,-0.265758,-0.16309,9.414019
5.43,-0.3525,0.120667,9.432624
5.44,-0.089835,0.123463,9.808595
5.45,-0.465709,0.140166,9.379676
5.46,-0.040988,0.352022,9.839123
5.47,-0.145035,0.054842,10.10756
5.48,-0.3077,-0.030029,9.556052
5.49,-0.488625,0.073226,9.202536
5.5,-0.253257,-0.052433,9.497582
5.51,-0.329979,0.00266,9.532869
5.52,-0.46366,0.120788,9.508083
5.53,-0.303126,0.205094,9.761393
5.54,-0.072638,0.017808,9.443539
5.55,-0.199883,-0.042808,9.615939
5.56,-0.224508,0.271998,9.610631
5.57,-0.413095,0.043847,9.620811
5.58,-0.194429,0.207445,9.378186
5.59,0.080109,0.365774,9.719192
5.6,-0.138876,0.324285,9.374947
5.61,-0.187055,0.299561,9.631792
5.62,-0.00871,0.381154,9.656584
5.63,0.08113,0.260138,9.390565
5.64,0.110787,0.064194,9.381247
5.65,-0.03204,0.604324,9.516436
5.66,-0.317249,0.306097,9.785921
5.67,0.09074,0.314418,9.666777
5.68,-0.103939,0.272181,9.783639
5.69,-0.110958,-0.007445,9.803022
5.7,-0.164937,0.118214,9.740626
5.71,0.075697,0.495308,9.604996
5.72,0.151094,-0.039851,9.031908
5.73,-0.079442,0.230117,9.745562
5.74,0.130279,0.286219,10.050042
5.75,0.211821,0.190368,9.500233
5.76,0.11482,0.542859,9.632515
5.77,0.072863,0.004365,9.965216
5.78,0.062649,0.120865,9.74661
5.79,-0.000366,0.27244,9.74189
5.8,0.224608,0.277093,9.587919
5.81,0.293515,0.225403,9.719998
5.82,0.154252,0.242978,9.710891
5.83,0.079457,0.098109,9.755245
5.84,0.23132,0.133622,9.480708
5.85,0.033161,0.017335,10.127966
5.86,0.367992,0.224259,9.702833
5.87,0.360976,-0.10182,9.525501
5.88,0.274348,-0.062721,9.585611
5.89,0.14522,0.262031,9.519446
5.9,0.189957,0.029468,9.679334
5.91,-0.033514,0.467287,9.673549
5.92,0.120981,0.022963,9.915103
5.93,0.354034,0.010534,9.514547
5.94,0.135279,0.26343,9.501411
5.95,0.616279,0.19898,9.394709
5.96,0.19022,0.008965,9.829172
5.97,0.131485,0.010483,9.892585
5.98,0.326636,0.160961,9.163484
5.99,0.338253,0.026389,9.858806
6.0,0.490103,-0.068132,9.661647
6.01,0.25068,-0.05969,9.983438
6.02,0.159093,0.249864,10.149244
6.03,0.207567,-0.106599,9.501524
6.04,0.477631,-0.120677,9.712405
6.05,0.544828,-0.092937,10.008605
6.06,0.210164,-0.090829,10.016349
6.07,0.277508,-0.223851,9.809506
6.08,0.507234,0.114404,10.009499
6.09,0.409303,-0.191962,9.934511
6.1,0.209358,-0.073269,10.032931
6.11,0.117648,0.086999,10.051851
6.12,0.19169,-0.219847,9.846717
6.13,0.41356,-0.119471,10.026091
6.14,0.058554,-0.372793,9.861907
6.15,0.308712,-0.313826,10.045882
6.16,0.218623,-0.184225,9.76123
6.17,0.158397,-0.272383,9.981612
6.18,0.189362,-0.106126,9.984014
6.19,0.387337,-0.302295,10.084736
6.2,0.329134,-0.269638,9.900067
6.21,0.397189,-0.328731,9.757064
6.22,0.112128,-0.072372,9.919026
6.23,-0.025897,-0.27179,9.678031
6.24,0.24477,-0.34152,9.869268
6.25,0.20606,-0.376795,9.667961
6.26,0.124973,-0.410399,9.970964
6.27,-0.108393,-0.143884,10.160499
6.28,0.307522,-0.258777,10.138629
6.29,-0.275026,0.196176,9.669471
6.3,0.263327,-0.324645,10.025594
6.31,0.245205,-0.4725,10.437878
6.32,0.224254,-0.267862,9.891409
6.33,0.111906,0.108083,10.082164
6.34,-0.231462,-0.173332,10.221509
6.35,-0.143537,-0.23213,9.739638
6.36,-0.040524,-0.29293,10.080471
6.37,0.349377,-0.254581,10.191474
6.38,0.202516,-0.018156,9.965171
6.39,0.01897,-0.314745,9.766026
6.4,-0.058852,-0.175509,10.262094
6.41,0.039919,-0.148005,9.720763
6.42,0.133842,-0.157966,9.637262
6.43,0.038763,-0.194805,9.792355
6.44,-0.228149,-0.354478,9.979151
6.45,0.1826,-0.092488,9.775017
6.46,0.026422,-0.153641,9.846523
6.47,-0.134697,0.085052,9.940731
6.48,-0.018786,-0.112256,10.311481
6.49,0.097648,-0.081225,10.159397
6.5,-0.039299,-0.036204,10.122423
6.51,-0.043364,0.025135,10.383509
6.52,0.108204,-0.301984,10.397907
6.53,-0.22734,0.028775,9.92214
6.54,-0.289017,-0.258332,9.914681
6.55,-0.22314,-0.045215,9.984154
6.56,-0.037545,0.120429,10.150663
6.57,-0.03109,0.348611,10.362163
6.58,-0.161134,-0.096793,9.916194
6.59,-0.322609,-0.058758,10.099917
6.6,0.061658,-0.173233,10.093396
6.61,-0.388976,-0.015896,10.385587
6.62,-0.292495,0.44933,10.287319
6.63,-0.337993,-0.120077,9.93509
6.64,-0.081289,-0.335984,10.279828
6.65,-0.274692,0.274638,10.078734
6.66,-0.008507,0.28259,10.184815
6.67,-0.141865,0.171981,9.903856
6.68,-0.40778,0.194306,9.768992
6.69,-0.321331,0.302787,10.0865
6.7,-0.359018,0.315072,9.962448
6.71,-0.075933,0.049393,10.109919
6.72,-0.160638,0.023076,10.024539
6.73,-0.528965,0.067067,10.157621
6.74,-0.215195,0.108855,10.195501
6.75,-0.305728,0.338997,10.285385
6.76,-0.489379,0.393709,10.284907
6.77,-0.423308,0.188423,10.395002
6.78,-0.332306,0.285787,10.173757
6.79,-0.631953,0.232329,9.929555
6.8,-0.266209,0.123054,10.340491
6.81,-0.285546,0.117508,10.209231
6.82,-0.334724,0.259842,10.302077
6.83,-0.288914,0.363173,10.310347
6.84,-0.325379,0.309839,10.109958
6.85,-0.456683,0.216426,10.107563
6.86,-0.380214,0.4529,10.528497
6.87,-0.396176,0.474769,9.920632
6.88,-0.180101,0.00957,10.075509
6.89,-0.428816,0.053046,10.318046
6.9,-0.345781,0.007802,10.123647
6.91,-0.252298,0.35403,10.054485
6.92,-0.477797,0.169409,10.305704
6.93,-0.309952,0.212483,10.407869
6.94,-0.230099,0.285662,10.18872
6.95,-0.201879,0.18433,9.871275
6.96,-0.165398,0.079836,10.176331
6.97,-0.322721,0.00134,10.228501
6.98,-0.362711,0.119817,9.964452
6.99,-0.258739,0.26397,10.429421
7.0,-0.14891,-0.121438,10.248812
7.01,-0.210755,0.046673,9.967922
7.02,-0.32353,-0.182806,10.248777
7.03,0.187678,0.232577,10.243274
7.04,-0.251353,-0.168675,10.028031
7.05,-0.319734,-0.173456,9.907362
7.06,-0.212643,0.179006,10.083899
7.07,0.035002,-0.056769,10.018072
7.08,0.003537,-0.246574,10.179826
7.09,0.198514,0.091246,10.077658
7.1,-0.207962,0.014646,10.217029
7.11,-0.088561,0.274537,10.166043
7.12,0.121844,-0.214234,10.259372
7.13,-0.174372,-0.193161,10.225947
7.14,0.170153,-0.170012,10.298551
7.15,0.014625,0.075029,9.950338
7.16,-0.097186,-0.382494,10.301531
7.17,-0.221672,-0.153868,10.461336
7.18,0.127135,-0.075592,10.325146
7.19,0.283208,0.050664,9.823031
7.2,0.125613,-0.269548,10.395265
7.21,0.146798,-0.108993,10.230257
7.22,0.139387,-0.258169,10.271669
7.23,0.250535,-0.359412,9.932192
7.24,0.30829,-0.201698,9.809329
7.25,-0.296477,-0.23659,10.342071
7.26,0.09983,-0.127854,9.979032
7.27,0.066398,0.083929,9.909185
7.28,0.19849,-0.153736,9.769996
7.29,0.121415,-0.227118,9.734926
7.3,0.258012,-0.15068,10.048119
7.31,0.251292,-0.349861,10.209957
7.32,-0.076615,-0.125432,10.092889
7.33,-0.106509,-0.346987,10.00739
7.34,0.342179,-0.202875,10.273798
7.35,0.112384,-0.287667,10.293892
7.36,0.502705,-0.296188,9.848878
7.37,0.380139,-0.018158,10.04688
7.38,-0.008967,-0.391407,10.029766
7.39,0.145966,-0.184195,9.944942
7.4,0.3074,-0.319716,10.079923
7.41,0.209865,-0.118018,10.258449
7.42,0.255637,-0.447683,9.620775
7.43,0.119693,-0.296214,10.020826
7.44,0.341435,-0.37953,9.999687
7.45,0.295716,0.000122,9.92293
7.46,0.40872,-0.03637,10.09933
7.47,0.290146,-0.329199,9.906986
7.48,0.204529,-0.388085,9.817942
7.49,0.320265,-0.274075,10.08635
7.5,0.354434,-0.077244,9.708865
7.51,0.3,-0.144842,9.804712
7.52,0.483066,-0.235537,9.772598
7.53,0.134533,0.004075,10.223771
7.54,0.43166,-0.102422,9.938434
7.55,0.109863,-0.270601,9.656523
7.56,0.38756,-0.441572,9.94488
7.57,-0.022355,0.191593,9.689958
7.58,0.236763,-0.147343,9.937599
7.59,0.419862,-0.447632,9.638876
7.6,0.209272,-0.031859,9.597711
7.61,0.249958,-0.31431,9.995386
7.62,0.298666,0.142859,9.747285
7.63,-0.098317,0.147724,10.080366
7.64,0.287205,-0.055872,9.450074
7.65,0.091422,-0.172907,9.944804
7.66,0.367116,0.08048,9.745637
7.67,0.201326,0.20356,9.959758
7.68,0.247286,0.020625,9.745208
7.69,0.017986,-0.006699,9.924426
7.7,0.305625,-0.048517,9.757898
7.71,0.170432,0.025207,9.818794
7.72,-0.062622,0.067095,10.030705
7.73,0.075473,0.029523,9.798437
7.74,0.240891,-0.029005,9.66881
7.75,0.14863,0.37674,9.602905
7.76,0.222939,0.104388,9.856248
7.77,0.04972,0.072649,9.963997
7.78,0.273421,0.192574,9.875668
7.79,0.290648,0.209605,10.062437
7.8,-0.196604,0.174098,9.795403
7.81,0.141977,0.022034,9.634778
7.82,0.27328,0.207265,9.974971
7.83,0.135991,0.277096,9.480578
7.84,0.194317,0.497123,9.57153
7.85,0.538504,1.180407,9.724313
7.86,2.208593,3.082148,9.519686
7.87,5.336897,6.849856,9.794928
7.88,10.254151,13.279526,9.613727
7.89,14.881228,18.729893,9.875692
7.9,16.662206,21.231055,9.767116
7.91,14.563455,18.758532,10.014082
7.92,9.751071,12.890468,9.349324
7.93,5.424094,6.875817,9.746035
7.94,2.227574,3.041389,9.678866
7.95,0.295511,1.021932,9.671144
7.96,0.124904,0.250339,9.568256
7.97,0.016516,0.60279,9.696361
7.98,-0.569628,0.369583,9.277092
7.99,-0.324814,0.251432,9.265443
8.0,0.18877,0.241416,9.470966
8.01,-0.183425,0.317052,9.253018
8.02,0.139956,0.200046,9.678658
8.03,-0.177768,0.118905,9.424031
8.04,-0.054874,0.407566,9.584523
8.05,-0.274696,0.057143,9.643922
8.06,-0.337266,0.363129,9.557067
8.07,-0.484577,0.179374,9.699294
8.08,-0.171205,0.203184,9.489507
8.09,-0.386601,0.101508,9.557951
8.1,-0.409447,-0.029654,9.472627
8.11,-0.505437,0.020394,9.727906
8.12,-0.27162,0.163933,9.314
8.13,-0.167185,-0.024555,9.617636
8.14,-0.321446,-0.03551,9.82205
8.15,-0.338447,0.187863,9.626484
8.16,-0.063326,0.127135,9.429172
8.17,-0.53758,-0.142614,9.592993
8.18,-0.026133,0.215741,9.410651
8.19,-0.501617,0.21498,9.720493
8.2,-0.318014,-0.028134,9.602734
8.21,-0.245174,-0.260208,9.546564
8.22,-0.153415,-0.228139,9.767146
8.23,-0.539564,-0.116284,9.522489
8.24,-0.273593,0.133331,9.243312
8.25,-0.388846,-0.03645,9.513776
8.26,-0.145071,-0.255855,9.449289
8.27,-0.385427,0.133349,9.491243
8.28,-0.578503,-0.10607,9.582539
8.29,-0.228872,0.00911,9.615971
8.3,-0.283822,-0.171646,9.292091
8.31,-0.007713,-0.42437,9.488031
8.32,-0.124026,-0.411949,9.446432
8.33,-0.393924,-0.284749,9.517812
8.34,-0.109521,-0.123765,9.552325
8.35,-0.233705,-0.115093,9.462665
8.36,-0.124811,0.097902,9.253443
8.37,-0.288745,-0.149844,9.454129
8.38,0.010764,0.0399,9.678754
8.39,1.035564,0.672023,9.26662
8.4,3.455159,3.094837,9.710529
8.41,8.0069,7.615191,9.159791
8.42,15.816216,13.918238,9.498301
8.43,22.854312,20.471073,9.350184
8.44,26.110279,23.297115,9.455819
8.45,22.755014,20.360444,9.589587
8.46,15.906034,13.731037,9.626247
8.47,8.490472,7.396719,9.686974
8.48,3.30985,3.014185,9.176687
8.49,1.107967,0.641322,9.296769
8.5,0.193257,0.008404,9.351175
8.51,0.068056,0.112304,9.31829
8.52,-0.26606,-0.073013,9.530153
8.53,-0.236238,-0.167786,9.596598
8.54,-0.151111,-0.320152,9.119174
8.55,-0.035927,-0.140458,9.256945
8.56,0.229691,-0.475557,9.423661
8.57,0.023966,-0.238917,9.452359
8.58,0.153114,-0.295665,9.739021
8.59,-0.10698,-0.097143,9.233153
8.6,-0.048257,-0.528488,9.357515
8.61,-0.050736,0.18368,9.691082
8.62,0.033863,-0.249785,9.364496
8.63,0.176422,0.068551,9.588988
8.64,0.038769,-0.054028,9.374668
8.65,0.056207,-0.103406,9.413043
8.66,0.20105,-0.104714,9.564298
8.67,0.050024,-0.117041,9.414128
8.68,0.021735,-0.188691,9.331372
8.69,0.099131,-0.040029,9.593271
8.7,0.434496,-0.120536,9.306463
8.71,0.303818,0.005211,9.606803
8.72,0.467036,-0.001597,9.409859
8.73,-0.002683,-0.109554,9.310846
8.74,0.261112,-0.111115,9.62991
8.75,0.156266,0.018617,9.401167
8.76,0.174367,0.05584,9.447862
8.77,-0.001152,-0.067299,9.129302
8.78,0.433227,-0.130284,9.277829
8.79,0.002653,0.07311,9.700176
8.8,0.386732,0.102033,9.529268
8.81,0.201008,0.080172,9.705152
8.82,0.129767,0.062184,9.484757
8.83,0.128948,0.208791,9.519482
8.84,0.28504,-0.043174,9.808851
8.85,0.227315,-0.010235,9.589767
8.86,0.287137,0.041841,9.813221
8.87,-0.007756,0.122251,9.438905
8.88,-0.016555,0.055973,9.480226
8.89,0.022582,0.070155,9.390947
8.9,0.417985,0.308712,9.633165
8.91,0.516236,0.170301,9.375929
8.92,0.260241,0.312345,9.846473
8.93,0.411606,0.201482,9.253951
8.94,0.351621,0.102031,9.551208
8.95,0.473998,0.382387,9.451985
8.96,0.477924,0.162469,9.608122
8.97,0.109604,0.279866,9.429774
8.98,0.321251,0.344595,9.61143
8.99,0.417619,0.210517,9.64944
9.0,0.414418,0.204713,9.680563
9.01,0.39599,0.128122,9.904779
9.02,0.271154,0.263504,9.583431
9.03,0.37211,0.13427,9.547674
9.04,0.051598,0.208255,9.569177
9.05,0.052486,0.195679,9.347545
9.06,0.477544,0.163208,9.787559
9.07,0.40707,0.286256,9.444278
9.08,0.473288,0.415164,9.816296
9.09,0.204443,0.357311,9.473126
9.1,0.07204,-0.055003,9.337984
9.11,0.18141,0.237663,9.210127
9.12,0.490503,0.558739,9.80798
9.13,0.063995,0.23346,9.887561
9.14,0.153356,0.163029,9.729489
9.15,0.351283,0.39671,9.482484
9.16,0.169623,0.192752,9.462571
9.17,0.088,0.3632,9.59783
9.18,0.247847,0.15287,9.850629
9.19,0.051048,0.230215,9.643116
9.2,0.182035,0.061776,9.433802
9.21,-0.264066,0.295544,9.545153
9.22,-0.177201,0.126818,9.746954
9.23,0.037726,0.141678,9.935932
9.24,0.260049,0.249889,9.839019
9.25,0.022351,0.165899,9.578811
9.26,0.026037,0.058143,9.732573
9.27,0.058184,-0.138021,9.927406
9.28,-0.054211,0.040107,9.742008
9.29,-0.247024,-0.010804,9.468035
9.3,0.084464,0.031389,9.640954
9.31,0.007889,-0.016737,9.187916
9.32,0.006344,0.188614,9.832804
9.33,-0.225228,0.066856,10.021049
9.34,0.158027,-0.079736,10.057179
9.35,-0.148126,0.062562,9.786355
9.36,0.118285,0.160501,9.645151
9.37,-0.425129,-0.164522,9.772395
9.38,-0.184834,-0.116777,9.844305
9.39,0.095608,-0.197326,10.048518
9.4,-0.165879,-0.053616,9.897154
9.41,-0.524263,0.191581,9.536114
9.42,-0.311049,0.044178,9.989475
9.43,-0.135808,-0.192658,9.507448
9.44,0.027034,-0.060206,9.892665
9.45,-0.241543,0.017943,10.167029
9.46,-0.043786,-0.421317,9.578203
9.47,-0.158156,-0.336628,9.85566
9.48,-0.288053,-0.05627,9.872314
9.49,-0.116663,-0.425401,9.891494
9.5,-0.098635,-0.2015,10.045203
9.51,-0.293336,-0.110527,9.78181
9.52,-0.365174,-0.177566,10.031427
9.53,-0.506365,-0.245637,9.868209
9.54,-0.207157,-0.030149,9.945728
9.55,-0.361776,-0.115466,9.676748
9.56,-0.201953,0.086753,10.128375
9.57,-0.240816,-0.414732,9.970726
9.58,-0.235786,-0.327633,10.054306
9.59,-0.316567,-0.259553,10.156365
9.6,-0.486016,-0.05476,9.909063
9.61,-0.225955,-0.138087,9.921161
9.62,-0.172787,-0.308964,9.650696
9.63,0.049244,-0.39281,10.009613
9.64,-0.389071,-0.406447,10.230489
9.65,-0.456951,0.022088,9.979492
9.66,-0.474266,-0.238567,9.845829
9.67,-0.305367,-0.199923,10.160432
9.68,-0.175592,-0.373011,9.748004
9.69,-0.159945,-0.212551,9.902093
9.7,-0.055243,-0.338368,9.896337
9.71,-0.229199,-0.182119,10.182689
9.72,-0.462823,-0.243104,10.068899
9.73,-0.242262,-0.291109,9.926928
9.74,-0.587903,0.00559,9.945973
9.75,-0.319251,0.028255,10.07382
9.76,-0.324737,-0.078322,10.084036
9.77,-0.185286,-0.410559,10.079566
9.78,-0.181085,-0.287891,9.937084
9.79,-0.350247,-0.269293,10.255774
9.8,-0.337611,0.177637,10.354004
9.81,-0.212855,0.067525,10.325872
9.82,-0.141996,0.125706,10.295436
9.83,-0.093637,-0.17686,10.507757
9.84,-0.266976,-0.280917,9.95807
9.85,-0.191245,0.115572,9.973389
9.86,-0.329534,-0.362994,9.841562
9.87,-0.316633,0.003352,10.053195
9.88,-0.441052,0.095962,9.876558
9.89,-0.234446,-0.148542,10.341521
9.9,0.064094,0.259981,10.146905
9.91,0.096864,0.004752,10.051526
9.92,-0.018284,0.110252,9.918107
9.93,0.05993,0.154808,9.887268
9.94,0.043249,0.1167,10.026621
9.95,-0.039426,0.016984,10.415565
9.96,-0.417915,-0.007638,10.332851
9.97,0.300373,0.18361,10.265792
9.98,-0.05744,0.232573,9.740448
9.99,-0.045035,0.296686,10.117012
10.0,0.219113,0.138817,10.092459
10.01,0.037154,0.183546,10.013663
10.02,0.404076,0.049211,10.151297
10.03,-0.085185,0.344406,9.981041
10.04,0.207965,0.072846,10.04847
10.05,0.028647,0.29645,9.991089
10.06,0.093311,0.367592,10.034065
10.07,-0.041201,0.371881,9.556679
10.08,0.008932,0.024178,10.165459
10.09,0.309229,0.002189,10.266071
10.1,0.205425,0.100587,10.009982
10.11,0.20304,0.083581,10.357175
10.12,-0.093773,0.562167,10.00017
10.13,-0.078301,0.303217,9.937722
10.14,0.034866,0.059389,10.347408
10.15,0.124469,0.100632,10.063862
10.16,0.178704,0.484619,10.201468
10.17,0.251437,0.443167,9.896475
10.18,0.366811,0.048654,10.131469
10.19,0.443058,0.361087,10.102137
10.2,0.260311,0.194358,10.091817
10.21,0.112451,0.207006,10.095066
10.22,0.356487,0.029551,10.193192
10.23,0.281942,0.168158,10.180362
10.24,0.331064,0.065659,10.251922
10.25,0.448206,0.40386,9.801071
10.26,0.214896,0.061117,10.42753
10.27,0.496657,0.371929,10.117205
10.28,0.069189,0.131011,10.062032
10.29,0.396285,-0.108628,10.216465
10.3,0.192957,0.070334,10.120673
10.31,0.327266,-0.032004,10.173048
10.32,0.345328,0.212582,10.083046
10.33,0.245251,-0.047832,10.251944
10.34,0.202957,0.047447,9.857749
10.35,0.172422,0.150282,10.188518
10.36,0.34302,-0.091568,10.051835
10.37,0.394665,0.283578,9.814272
10.38,0.571576,0.092009,10.33814
10.39,0.258496,0.060857,10.069227
10.4,0.064381,-0.192173,10.317064
10.41,0.362798,-0.058254,10.262945
10.42,0.027702,-0.035968,9.996336
10.43,0.524987,-0.193392,10.33653
10.44,0.393998,0.105933,10.08168
10.45,0.124055,-0.033255,9.999986
10.46,0.032058,-0.182395,9.939213
10.47,0.134516,-0.118479,9.970409
10.48,0.336926,-0.07544,10.177945
10.49,0.134839,0.204207,9.975265
10.5,0.354212,-0.0483,10.181449
10.51,0.375423,-0.242835,10.008475
10.52,0.140536,-0.233917,10.268126
10.53,0.349933,-0.207362,10.023925
10.54,0.389294,-0.07198,10.055501
10.55,0.283255,-0.110814,10.060404
10.56,0.270098,-0.109922,10.11412
10.57,0.093511,-0.20612,10.083497
10.58,0.471668,-0.434719,9.900296
10.59,0.008672,-0.129292,10.410866
10.6,0.078128,-0.335353,10.181345
10.61,0.273611,-0.14614,10.22573
10.62,0.064454,-0.41929,10.266242
10.63,0.063667,-0.24288,10.011339
10.64,-0.107897,-0.135645,10.193469
10.65,0.013307,0.046625,10.282863
10.66,0.433123,-0.335732,10.291484
10.67,0.004107,-0.040482,10.198237
10.68,0.236919,-0.105924,9.984928
10.69,-0.042892,-0.316304,10.262109
10.7,-0.141023,-0.261521,9.783918
10.71,-0.111248,-0.345231,9.893359
10.72,0.101251,-0.371821,9.587633
10.73,-0.348091,-0.47923,9.953199
10.74,0.221838,-0.407607,9.917128
10.75,0.024646,-0.636424,9.901281
10.76,-0.115987,-0.231333,9.941256
10.77,-0.191807,-0.01978,9.777274
10.78,-0.163756,-0.203674,10.081484
10.79,0.07453,-0.226606,9.922984
10.8,-0.347105,-0.318554,9.898424
10.81,-0.130864,0.066021,9.709727
10.82,0.034839,-0.054855,9.76122
10.83,-0.450078,-0.392602,9.770124
10.84,-0.251797,0.12116,10.017957
10.85,-0.395645,0.047383,10.423565
10.86,-0.372695,-0.328837,9.96354
10.87,-0.157291,-0.042368,10.054857
10.88,-0.102421,-0.176228,10.061754
10.89,-0.270933,-0.431773,9.608402
10.9,-0.443593,-0.261101,10.101983
10.91,-0.35737,0.002849,9.933909
10.92,-0.176347,-0.003089,10.074732
10.93,-0.249153,0.32902,9.690832
10.94,-0.428299,-0.044208,9.918331
10.95,-0.331411,-0.329244,9.987447
10.96,-0.147712,-0.191337,9.840083
10.97,-0.240509,-0.09758,9.641894
10.98,-0.432878,-0.061328,9.528878
10.99,-0.242661,-0.052709,9.963488
11.0,-0.369606,0.058693,9.933619
11.01,-0.386011,0.248609,9.698373
11.02,-0.272553,0.09712,9.962748
11.03,-0.45975,-0.237663,9.709116
11.04,-0.363189,0.119677,9.625225
11.05,-0.141618,-0.19263,9.872455
11.06,0.07082,-0.007956,9.476514
11.07,-0.556992,0.364721,9.820016
11.08,-0.431483,-0.19058,9.471434
11.09,-0.129459,0.420206,9.559439
11.1,-0.485966,0.216373,9.693758
11.11,-0.314865,0.19775,9.882928
11.12,-0.023614,-0.044273,9.381775
11.13,-0.399289,0.180247,9.875062
11.14,-0.324159,0.102488,9.950336
11.15,-0.47541,0.055653,9.774386
11.16,-0.17458,0.174794,9.692439
11.17,-0.54058,0.55475,9.713308
11.18,-0.370135,0.326336,9.453029
11.19,-0.454762,0.181435,9.695925
11.2,-0.30149,0.275945,9.754622
11.21,0.032354,0.160251,10.35367
11.22,-0.18029,0.334581,9.917829
11.23,-0.194145,0.047484,9.650628
11.24,-0.17691,0.362735,9.494134
11.25,-0.215586,0.006641,9.729456
11.26,-0.010015,0.193791,9.651886
11.27,-0.076611,0.403193,9.721936
11.28,-0.377556,0.508581,9.463167
11.29,-0.025505,-0.102845,9.344838
11.3,-0.125458,0.054351,9.708506
11.31,-0.081219,0.231941,9.545027
11.32,-0.43924,0.334552,9.624121
11.33,-0.125912,0.130324,9.426664
11.34,-0.134775,0.212659,9.813046
11.35,-0.20557,0.216056,9.379341
11.36,0.071858,0.193846,9.756643
11.37,-0.32179,0.194322,9.588221
11.38,0.390449,0.196398,9.551822
11.39,-0.218306,0.430737,9.619398
11.4,0.032922,0.14611,9.545401
11.41,0.007675,0.3576,9.523196
11.42,0.163937,0.150414,9.568163
11.43,0.252565,0.04089,9.479487
11.44,-0.0502,0.095214,9.619934
11.45,0.054607,-0.134956,9.792247
11.46,-0.022736,-0.052488,10.010923
11.47,-0.090669,-0.011531,9.731701
11.48,0.072399,0.105433,9.66859
11.49,0.075998,0.318884,9.168573
11.5,0.094377,0.005402,9.510916
11.51,0.048415,-0.110853,9.412096
11.52,0.168455,0.157983,9.254733
11.53,0.246707,0.045688,9.712018
11.54,-0.039681,0.178005,9.224435
11.55,0.245246,0.135693,9.371158
11.56,0.398143,0.0603,9.200799
11.57,-0.01655,0.015088,9.486797
11.58,0.208567,0.094018,9.713372
11.59,0.263718,0.069522,9.285167
11.6,0.322865,0.062658,9.406401
11.61,0.349258,0.046267,9.643349
11.62,0.40444,-0.116031,9.722614
11.63,0.252743,-0.239696,9.496253
11.64,0.090873,-0.126369,9.267355
11.65,0.194429,-0.202885,9.430249
11.66,0.471801,-0.292678,9.408619
11.67,0.130028,0.075014,9.373767
11.68,0.345983,-0.176704,9.242852
11.69,0.40058,-0.342406,9.607501
11.7,0.370749,0.006807,9.413942
11.71,0.422932,-0.185435,9.146298
11.72,0.282795,-0.061355,9.576074
11.73,0.275825,-0.273189,9.771951
11.74,0.566348,-0.135235,9.519149
11.75,0.592174,-0.134428,9.283278
11.76,0.515046,-0.219763,9.846731
11.77,0.381665,-0.33401,9.46024
11.78,0.213504,-0.18334,9.602815
11.79,0.320436,-0.156272,9.392773
11.8,0.280015,-0.428562,9.344764
11.81,0.463404,0.113664,9.592926
11.82,0.355156,-0.005637,9.286578
11.83,0.381893,-0.227704,9.382227
11.84,0.286495,-0.120544,9.438637
11.85,-0.086093,-0.249184,9.688282
11.86,0.480987,-0.338666,9.20641
11.87,0.269956,-0.097753,9.650901
11.88,0.41979,-0.358439,9.599149
11.89,0.218261,-0.175382,9.565822
11.9,0.506223,-0.324133,9.586441
11.91,0.176052,-0.344487,9.257806
11.92,0.23852,-0.18959,9.20913
11.93,0.243986,-0.047297,9.135551
11.94,0.00729,-0.155949,9.392912
11.95,0.286599,-0.176471,9.518927
11.96,0.340205,-0.445592,9.287167
11.97,0.269692,-0.196055,9.569244
11.98,0.544594,-0.366778,9.437101
11.99,0.053174,-0.135198,9.468373
12.0,-0.082364,-0.132873,9.580044
12.01,-0.013191,-0.128595,9.473054
12.02,0.166949,-0.111933,9.25965
12.03,0.322705,-0.018996,9.755869
12.04,0.157314,0.00386,9.575122
12.05,0.045157,-0.01692,9.27861
12.06,0.331491,0.091482,9.443075
12.07,0.077141,-0.402308,9.514887
12.08,-0.124179,-0.176387,9.271657
12.09,0.218927,0.05416,9.629895
12.1,0.152979,0.003076,9.290791
12.11,0.078842,-0.112902,9.801204
12.12,0.273342,0.095793,9.666749
12.13,0.001305,0.15464,9.378993
12.14,0.045754,-0.055343,9.312825
12.15,-0.15578,-0.024852,9.5336
12.16,-0.128174,-0.160129,9.259837
12.17,-0.106809,0.083517,9.483886
12.18,0.055171,0.104424,9.514976
12.19,-0.163175,-0.035211,9.590081
12.2,-0.089092,0.057591,9.702941
12.21,-0.120748,0.139774,9.682685
12.22,-0.107746,0.29653,9.708079
12.23,-0.226837,0.111714,9.606459
12.24,-0.155368,0.043872,9.57153
12.25,-0.309082,0.411177,9.428294
12.26,-0.153771,0.301925,9.196698
12.27,-0.163382,0.011335,9.5818
12.28,-0.159294,0.320894,9.341989
12.29,-0.096964,0.14213,9.586468
12.3,0.080152,0.380905,9.164173
12.31,-0.450019,0.170322,9.35661
12.32,-0.266438,-0.031926,9.443522
12.33,-0.356939,0.15595,10.154921
12.34,-0.181982,0.112905,9.456385
12.35,-0.130855,0.147433,9.516957
12.36,-0.426894,-0.095368,9.611544
12.37,-0.20456,0.232002,9.74831
12.38,-0.129369,-0.05543,9.480964
12.39,-0.20182,0.230201,9.265288
12.4,-0.322098,-0.114217,9.342484
12.41,-0.175405,0.080961,9.567782
12.42,-0.319874,0.324616,9.908169
12.43,-0.150069,0.343294,9.458209
12.44,-0.236725,0.114613,9.785105
12.45,-0.321022,0.310388,9.56025
12.46,-0.484057,-0.051543,9.622246
12.47,-0.294817,0.362021,9.455487
12.48,-0.459586,0.384785,9.737943
12.49,-0.462765,0.16828,9.77896
12.5,-0.352205,0.125023,9.378627
12.51,-0.311119,-0.1704,9.537918
12.52,-0.478002,0.162662,9.672488
12.53,-0.322179,0.260117,9.793999
12.54,-0.331029,0.204534,10.134558
12.55,-0.38275,0.161131,9.594303
12.56,-0.328117,-0.088278,9.236505
12.57,-0.189199,0.133769,9.620739
12.58,-0.339771,-0.02784,9.795174
12.59,-0.189584,0.301452,9.825376
12.6,-0.283405,0.165427,9.70837
12.61,-0.112798,0.101464,9.557941
12.62,-0.13742,0.053756,9.825019
12.63,-0.284155,-0.108619,9.782475
12.64,-0.347021,-0.102783,9.815015
12.65,-0.164293,0.292552,9.646242
12.66,-0.307421,-0.142786,9.937621
12.67,-0.455065,-0.020146,9.826084
12.68,-0.100466,-0.021721,9.77958
12.69,-0.293037,-0.050342,9.992219
12.7,-0.501749,-0.037607,9.747909
12.71,-0.192341,0.202439,9.977882
12.72,-0.029773,-0.069752,9.721123
12.73,-0.247608,-0.029776,9.625994
12.74,-0.200022,-0.162599,9.834822
12.75,-0.061399,-0.158449,9.474711
12.76,-0.192566,-0.070951,9.913378
12.77,-0.127766,0.05807,10.043379
12.78,0.034411,0.029836,10.299228
12.79,0.014313,-0.648015,10.055099
12.8,-0.040671,-0.435484,10.202372
12.81,-0.311813,0.118338,9.937895
12.82,0.038822,-0.281634,10.141979
12.83,-0.095005,-0.267346,9.931022
12.84,0.050846,-0.304344,10.158647
12.85,-0.236951,-0.41961,9.52076
12.86,0.144427,-0.345701,9.715405
12.87,-0.109115,-0.316357,9.855269
12.88,0.094764,-0.314611,10.087292
12.89,0.183188,-0.389955,10.064955
12.9,0.114827,-0.108454,9.771523
12.91,0.127041,-0.261938,9.691791
12.92,0.095123,-0.22728,9.929216
12.93,-0.088469,-0.236425,9.874213
12.94,0.305739,-0.32822,9.891877
12.95,0.283468,-0.35471,9.920929
12.96,0.073743,-0.46913,9.934746
12.97,-0.371321,-0.135699,10.156539
12.98,0.305336,-0.262935,10.149582
12.99,-0.10762,-0.052646,9.914636
13.0,0.256156,-0.175074,9.929525
13.01,0.077546,0.011096,10.148085
13.02,0.269013,-0.276934,10.059402
13.03,0.055636,-0.358306,10.183
13.04,0.216927,0.074414,10.111291
13.05,-0.030916,-0.023168,10.020672
13.06,0.235827,-0.466331,10.068034
13.07,0.24093,-0.108669,9.695448
13.08,0.356878,-0.061211,9.928483
13.09,0.184532,-0.189947,10.311513
13.1,0.305337,-0.337917,10.238691
13.11,0.209509,-0.161286,10.010209
13.12,0.342607,-0.092241,9.860646
13.13,0.338288,-0.214078,10.183549
13.14,0.416076,0.012252,9.72127
13.15,0.112184,-0.323665,10.160209
13.16,0.277775,-0.042672,10.087221
13.17,0.336896,0.235599,10.033244
13.18,0.569496,0.048151,10.276782
13.19,0.595693,0.189303,10.253245
13.2,0.095495,-0.033897,10.233303
13.21,0.207718,0.031835,10.378595
13.22,-0.074915,-0.05015,10.002118
13.23,0.628719,-0.031024,10.009202
13.24,0.345721,0.118985,10.120959
13.25,0.3834,-0.083969,10.437224
13.26,0.246531,0.195348,9.819658
13.27,0.290461,0.156993,10.023513
13.28,0.456952,-0.085282,10.010578
13.29,0.126588,0.255267,10.214024
13.3,0.109574,0.43841,9.921636
13.31,0.237705,0.267816,10.142373
13.32,0.269644,-0.144604,10.441128
13.33,0.345292,0.51377,9.912937
13.34,0.258252,-0.164043,9.982525
13.35,0.121392,-0.079243,10.162841
13.36,0.183362,-0.075542,10.307134
13.37,0.258897,0.1555,10.178304
13.38,0.322872,-0.086334,10.318615
13.39,0.364691,-0.124069,10.317849
13.4,0.164174,0.115324,9.945479
13.41,0.08943,0.11631,10.125572
13.42,0.050639,0.185464,9.791574
13.43,0.349826,0.30649,10.24877
13.44,0.098477,0.459335,10.538416
13.45,0.03816,0.237673,10.049835
13.46,0.166287,0.311822,10.100159
13.47,0.371585,0.202497,10.031197
13.48,-0.021237,0.422049,10.426715
13.49,0.193849,0.47541,10.274809
13.5,0.024459,0.158352,10.10602
13.51,0.096734,0.043964,9.912686
13.52,0.188954,0.15499,10.109514
13.53,0.236761,0.170151,9.968708
13.54,-0.038103,0.203335,10.141174
13.55,0.140792,0.232863,10.18574
13.56,0.050692,0.193899,10.00455
13.57,0.062302,0.030908,10.088788
13.58,0.17404,0.176541,10.335451
13.59,-0.131066,0.24866,10.043988
13.6,0.078629,0.425209,10.442022
13.61,-0.02712,0.103167,10.249925
13.62,0.113973,0.176185,10.217859
13.63,-0.01492,0.150386,10.239622
13.64,-0.111778,0.081111,9.751852
13.65,0.029064,0.074092,10.320231
13.66,-0.199108,-0.143175,10.3607
13.67,-0.186084,0.191289,10.246594
13.68,-0.250547,0.212099,9.896469
13.69,-0.243473,0.036944,10.226639
13.7,-0.571023,0.16084,9.956352
13.71,-0.248334,-0.188359,10.268485
13.72,-0.193405,0.280605,10.248126
13.73,-0.078625,-0.070375,10.069714
13.74,-0.340736,-0.008283,10.178472
13.75,-0.287202,0.155898,10.185598
13.76,-0.2477,-0.214364,10.35831
13.77,-0.115126,-0.083003,10.212945
13.78,-0.211204,-0.133893,9.94797
13.79,-0.189813,0.042597,9.802537
13.8,-0.120978,-0.194422,10.364638
13.81,-0.184688,0.046943,9.876532
13.82,-0.35686,-0.041988,9.901592
13.83,-0.015684,-0.327475,10.023777
13.84,-0.562801,0.019877,10.023333
13.85,-0.147518,0.1609,9.815698
13.86,-0.220456,-0.267623,10.10645
13.87,-0.103467,-0.22028,9.866962
13.88,-0.328155,-0.349311,10.157911
13.89,-0.370138,-0.174296,10.171249
13.9,-0.462933,-0.012368,10.277074
13.91,-0.458522,-0.287902,10.156668
13.92,-0.324838,-0.333685,10.186632
13.93,-0.426309,-0.013168,9.79947
13.94,-0.406337,-0.326522,9.912559
13.95,-0.457705,-0.326322,10.028504
13.96,-0.142051,-0.261726,10.205908
13.97,-0.403423,-0.492975,10.037651
13.98,-0.232101,-0.363914,9.992345
13.99,-0.308044,0.037742,10.14188
14.0,-0.233264,-0.138013,9.686403
14.01,-0.320313,-0.15647,9.842213
14.02,-0.159837,-0.156564,10.053074
14.03,-0.178609,-0.157576,10.021924
14.04,-0.083279,-0.313491,10.095356
14.05,-0.357352,-0.262299,10.052652
14.06,-0.378275,-0.195777,10.070932
14.07,-0.302132,-0.31984,9.88915
14.08,-0.218868,-0.048053,10.228343
14.09,-0.148466,-0.495899,9.792225
14.1,-0.312702,-0.28511,9.933697
14.11,-0.179463,-0.066331,9.976668
14.12,-0.227203,-0.077456,10.079708
14.13,-0.229698,-0.295603,9.791283
14.14,-0.180683,-0.166499,9.937978
14.15,0.05652,-0.160141,10.134466
14.16,-0.038967,0.128949,9.940018
14.17,0.011184,-0.308089,9.96447
14.18,-0.080149,-0.147302,9.859646
14.19,0.141579,-0.230735,9.922764
14.2,0.023042,0.070994,9.910831
14.21,-0.311887,-0.167256,9.983715
14.22,0.023634,-0.227934,9.68154
14.23,-0.022015,-0.011949,9.872301
14.24,0.033415,-0.229793,9.915837
14.25,-0.271926,-0.069185,10.028237
14.26,-0.253411,0.016491,9.998161
14.27,-0.034976,-0.330543,10.122535
14.28,-0.270916,-0.179093,9.868926
14.29,0.111152,0.243643,9.623824
14.3,0.04101,0.003945,9.838342
14.31,0.324147,-0.18585,9.553558
14.32,0.101249,0.020597,9.545669
14.33,0.162144,-0.267769,9.717472
14.34,0.157796,0.052137,9.867518
14.35,0.095474,0.100397,9.625787
14.36,0.113927,0.041964,10.051698
14.37,0.10022,-0.043004,9.845457
14.38,-0.237111,0.350411,10.02219
14.39,0.301161,0.045779,10.105518
14.4,0.314354,-0.175478,9.963434
14.41,0.285516,0.096398,9.692677
14.42,0.180378,0.308751,9.583556
14.43,0.157597,0.387703,9.595704
14.44,0.018141,-0.248173,9.784342
14.45,0.010578,0.041666,9.673556
14.46,0.118997,0.121032,9.55993
14.47,0.247883,0.211769,9.84671
14.48,0.282296,-0.008401,9.825356
14.49,0.157462,0.287723,9.561225
14.5,0.047161,0.351453,9.620231
14.51,0.150238,0.086758,9.449045
14.52,0.239365,0.218707,9.723051
14.53,0.029543,0.353689,9.619523
14.54,0.297265,0.50177,9.871892
14.55,0.517141,0.398993,9.685733
14.56,0.159808,0.165906,9.544497
14.57,0.602621,0.31478,9.67827
14.58,0.182924,0.213403,9.615396
14.59,0.258492,0.137299,9.525076
14.6,0.367172,0.324356,9.628727
14.61,0.289927,0.322287,9.410461
14.62,0.044188,0.247007,9.668623
14.63,0.337063,0.396357,9.676546
14.64,0.311639,0.200621,9.822558
14.65,0.260423,0.225684,9.654328
14.66,0.309901,0.264583,9.440707
14.67,0.364202,0.278077,9.06092
14.68,0.162991,0.085277,9.409766
14.69,0.373959,0.500323,9.661106
14.7,0.199178,0.310742,9.817866
14.71,0.517313,0.202133,9.610383
14.72,0.438919,0.196682,9.439979
14.73,0.128744,0.172559,9.62637
14.74,0.457527,0.393371,9.143273
14.75,0.328418,0.307392,9.58064
14.76,0.340583,0.247943,9.676861
14.77,0.227087,0.513003,9.422711
14.78,0.195635,0.21821,9.736811
14.79,0.198772,-0.017866,9.810557
14.8,0.088189,0.215485,9.653975
14.81,-0.058126,0.171407,9.615573
14.82,0.11778,0.286245,8.918225
14.83,0.107583,0.176406,9.594269
14.84,0.030636,0.071531,9.709648
14.85,0.271178,0.181508,9.50964
14.86,0.209884,-0.229149,9.67478
14.87,0.073464,0.08064,9.549296
14.88,0.104366,0.080285,9.528366
14.89,0.173009,-0.219495,9.603667
14.9,0.018703,-0.014946,9.479451
14.91,-0.267464,-0.146884,9.372118
14.92,0.282857,-0.126873,9.460773
14.93,0.073721,0.06372,9.439696
14.94,0.118789,-0.24315,9.568662
14.95,0.091247,-0.135343,9.336181
14.96,-0.163938,-0.253037,9.703293
14.97,-0.063577,-0.09264,9.549583
14.98,0.024355,-0.088296,9.704434
14.99,-0.016686,-0.343242,9.440799
15.0,-0.170173,-0.212247,9.245305
15.01,0.038196,-0.199866,9.259763
15.02,0.059035,-0.164107,9.362459
15.03,-0.096572,-0.0488,9.286384
15.04,0.097866,-0.343417,9.19292
15.05,0.01449,-0.269186,9.506929
15.06,-0.020269,-0.018936,9.532346
15.07,-0.165829,-0.104965,9.429453
15.08,-0.128852,-0.372757,9.720919
15.09,0.009316,-0.25094,9.462042
15.1,-0.345131,-0.176111,9.406482
15.11,-0.347204,-0.109228,9.41126
15.12,-0.212254,-0.19749,9.598582
15.13,-0.165369,-0.186309,9.217344
15.14,-0.187898,-0.184244,9.131925
15.15,-0.105563,-0.243245,9.499592
15.16,-0.15788,-0.487301,9.498849
15.17,-0.200855,-0.324438,9.566844
15.18,-0.258727,-0.061745,9.455518
15.19,-0.100013,-0.115553,9.776725
15.2,-0.051129,-0.243856,9.608362
15.21,-0.283753,-0.274065,9.045973
15.22,-0.188662,-0.344049,9.213383
15.23,-0.292952,-0.356913,9.124404
15.24,-0.442501,-0.078863,9.475226
15.25,-0.517374,-0.261517,9.496102
15.26,-0.096642,-0.162103,9.770136
15.27,-0.158279,0.162851,9.330267
15.28,-0.222535,-0.173937,9.302683
15.29,-0.137278,-0.292649,9.510945
15.3,-0.410705,-0.03813,9.281098
15.31,-0.159976,0.002602,9.422162
15.32,-0.243734,-0.43912,9.635601
15.33,-0.362497,0.051071,9.610781
15.34,-0.644794,-0.259283,9.664314
15.35,-0.514337,0.130476,9.239487
15.36,-0.042024,0.092602,9.576857
15.37,-0.046718,-0.066104,9.480209
15.38,-0.511188,-0.198921,9.906991
15.39,-0.596394,0.106317,9.612492
15.4,-0.099239,0.018235,9.486797
15.41,-0.304078,-0.146786,9.673066
15.42,-0.396672,0.061967,9.595435
15.43,-0.469809,-0.171836,9.630331
15.44,-0.466598,0.051874,9.588361
15.45,-0.079642,0.068846,9.431637
15.46,-0.232426,0.111427,9.433165
15.47,-0.532642,0.235226,9.632152
15.48,-0.362569,-0.006906,9.397245
15.49,-0.012833,-0.015118,9.544795
15.5,-0.197479,0.09816,9.607706
15.51,-0.444263,0.229321,9.417988
15.52,-0.323733,0.088176,9.605234
15.53,-0.233825,-0.109202,9.533769
15.54,-0.065677,0.104105,9.463986
15.55,-0.213171,0.178831,9.675551
15.56,0.018283,0.049155,9.314065
15.57,-0.138478,-0.176511,9.317253
15.58,-0.510796,0.232614,9.55754
15.59,-0.075718,-0.001215,9.35177
15.6,-0.171888,0.348728,9.790315
15.61,-0.208665,0.556989,9.502957
15.62,-0.06172,0.084526,9.316421
15.63,-0.145989,0.277899,9.543642
15.64,-0.066099,0.275769,9.897629
15.65,-0.162204,0.005738,9.423093
15.66,-0.155401,-0.123266,9.475424
15.67,0.108015,0.040417,9.69205
15.68,-0.027942,0.20099,9.850057
15.69,0.029448,0.61427,9.422769
15.7,-0.105498,0.335559,9.471042
15.71,0.153964,0.117355,9.333978
15.72,0.038421,0.115479,9.614838
15.73,-0.029956,0.145617,9.667949
15.74,0.22385,-0.035554,9.79316
15.75,-0.003802,0.110732,9.711681
15.76,0.087011,0.309038,9.65933
15.77,-0.1076,0.201569,9.693058
15.78,-0.008337,0.169214,9.75961
15.79,0.214557,0.349648,9.445215
15.8,0.102862,0.048988,9.709763
15.81,0.13642,0.275002,9.370932
15.82,0.121036,0.031727,9.88158
15.83,0.138838,0.318822,10.006816
15.84,0.07651,0.194611,9.583287
15.85,0.09802,0.199763,9.751363
15.86,0.135272,0.144646,9.846489
15.87,0.146268,0.235602,9.987394
15.88,0.269147,0.014599,9.689872
15.89,0.273806,0.282398,9.593093
15.9,0.41634,0.080046,9.810796
15.91,0.331398,0.179968,9.970292
15.92,0.102983,0.191846,9.753147
15.93,0.143328,-0.035129,9.988725
15.94,0.390835,0.140241,9.933895
15.95,0.357238,-0.059272,9.890963
15.96,0.420559,-0.200055,9.759592
15.97,0.270039,0.053436,9.727545
15.98,0.237097,0.334947,10.087315
15.99,0.33234,-0.102038,9.627493
16.0,0.079192,0.058832,9.88388
16.01,0.259461,0.090866,9.877742
16.02,0.586242,-0.219872,9.866463
16.03,0.245523,-0.152514,9.615547
16.04,0.294801,0.114062,9.830941
16.05,0.268195,0.011504,9.727933
16.06,0.525042,-0.089315,9.998108
16.07,0.122298,-0.349202,9.882616
16.08,0.400979,-0.211676,10.110568
16.09,0.239045,-0.059033,10.108632
16.1,0.20015,-0.620259,9.785118
16.11,0.044299,-0.038039,10.121733
16.12,0.55035,-0.000684,9.758758
16.13,0.398622,0.089537,10.116407
16.14,0.087433,0.001066,9.671264
16.15,0.093386,-0.13872,10.156865
16.16,0.180661,-0.090345,9.768473
16.17,0.347139,-0.268136,9.840954
16.18,0.247194,-0.304468,9.877109
16.19,0.123146,-0.162152,9.807212
16.2,0.241183,-0.356748,10.165971
16.21,0.436171,-0.302058,9.619879
16.22,0.327449,0.086692,10.025409
16.23,-0.041016,-0.356071,10.047717
16.24,0.063454,-0.212006,9.756824
16.25,0.1925,-0.49271,9.870182
16.26,0.222698,-0.37326,9.777958
16.27,0.389025,-0.371952,9.905441
16.28,0.180862,-0.267856,10.132537
16.29,0.252611,-0.379521,9.906642
16.3,-0.167331,-0.288202,10.032273
16.31,0.089824,-0.318648,9.967966
16.32,0.242705,-0.268438,10.353378
16.33,0.409301,-0.484003,10.021049
16.34,-0.087013,-0.46319,9.848777
16.35,0.075876,-0.106188,10.051844
16.36,-0.175131,-0.302502,10.139622
16.37,0.045851,-0.179154,9.922103
16.38,0.219854,-0.142063,10.256717
16.39,0.189119,-0.180732,9.738325
16.4,0.030285,-0.38425,9.958073
16.41,-0.014286,-0.480253,10.043522
16.42,0.401429,-0.224621,10.220953
16.43,-0.034563,-0.145753,10.303851
16.44,-0.097713,0.070036,10.304322
16.45,-0.112807,0.167737,10.088042
16.46,-0.261653,-0.063037,10.267583
16.47,0.011349,-0.115445,10.187956
16.48,0.029874,-0.102187,10.096032
16.49,0.011807,-0.084249,9.987041
16.5,0.023313,-0.166282,10.123386
16.51,-0.194729,0.15374,10.313116
16.52,-0.142297,-0.097752,10.105039
16.53,0.043124,0.029811,10.024898
16.54,-0.211949,0.041661,10.305278
16.55,-0.237211,-0.343819,10.021679
16.56,-0.01491,-0.133235,10.204866
16.57,-0.294442,0.087034,10.178061
16.58,-0.357238,0.235369,10.274202
16.59,-0.353234,0.092352,10.25978
16.6,0.199778,0.17898,10.237532
16.61,-0.063998,-0.074178,10.062654
16.62,-0.130731,0.109653,10.031188
16.63,-0.373364,-0.058223,10.185231
16.64,-0.16583,0.246715,10.172461
16.65,0.005904,0.148769,10.577747
16.66,-0.201232,0.414032,10.19908
16.67,-0.427942,0.161361,10.153983
16.68,-0.188077,-0.061849,10.038194
16.69,-0.297891,0.233979,9.958795
16.7,-0.258412,0.125129,9.872947
16.71,-0.42844,0.345422,9.953167
16.72,-0.401867,0.101387,10.095999
16.73,-0.361981,0.405445,10.323764
16.74,-0.410664,0.016079,10.227077
16.75,-0.305166,0.442083,9.976414
16.76,-0.400662,0.029562,10.045007
16.77,-0.053767,0.121658,10.135437
16.78,-0.22616,0.34529,10.094425
16.79,-0.186221,0.567455,10.003596
16.8,-0.320265,0.260975,9.714961
16.81,-0.599077,0.038973,9.967423
16.82,-0.170694,-0.100662,9.977874
16.83,-0.310766,0.392482,10.365143
16.84,-0.229011,0.495669,10.411664
16.85,-0.298782,0.410499,9.822616
16.86,-0.618128,0.269094,10.295989
16.87,-0.344182,0.125714,10.379653
16.88,-0.398532,0.312888,10.021659
16.89,-0.237849,0.28346,9.867057
16.9,-0.194158,0.521813,10.454732
16.91,0.06692,0.296245,10.124988
16.92,-0.179169,0.34433,10.387768
16.93,-0.325652,0.185647,10.172641
16.94,-0.296979,0.046951,10.42174
16.95,-0.147681,0.179857,10.238763
16.96,-0.089361,-0.186846,10.089552
16.97,-0.393596,0.162843,10.066316
16.98,-0.234075,0.201769,10.047341
16.99,-0.210053,0.059582,10.113899
17.0,-0.418662,0.185061,10.136456
17.01,-0.057468,0.280795,10.213069
17.02,-0.120566,0.126263,10.074038
17.03,-0.172331,0.079499,10.459615
17.04,-0.094618,0.021784,10.431877
17.05,-0.021144,0.028724,10.190474
17.06,0.183178,0.349959,10.470029
17.07,0.003726,-0.079492,10.39733
17.08,-0.253639,-0.069463,10.079064
17.09,0.353891,0.153563,10.215557
17.1,-0.22457,-0.118116,10.117088
17.11,0.015254,0.115387,10.384791
17.12,-0.061142,-0.170922,9.966263
17.13,-0.03473,-0.046035,9.863703
17.14,0.053108,0.081003,10.112156
17.15,0.077683,-0.255989,9.958794
17.16,0.229656,0.024579,9.96027
17.17,-0.063007,0.036663,10.072831
17.18,0.108747,-0.15111,10.021958
17.19,0.152925,0.068417,10.045351
17.2,0.427615,-0.16179,10.056242
17.21,0.16226,-0.162944,10.139855
17.22,-0.072694,-0.051336,9.968406
17.23,0.318351,0.015789,9.981139
17.24,0.057832,-0.603438,10.235194
17.25,0.007039,-0.501399,10.285763
17.26,0.346796,-0.391108,10.391051
17.27,0.179038,-0.112692,10.071168
17.28,0.140272,-0.180887,10.262868
17.29,0.433765,-0.503434,9.999536
17.3,0.114331,0.063813,10.133648
17.31,0.123224,-0.147309,10.063431
17.32,0.285279,-0.276279,10.353697
17.33,-0.118577,-0.166071,9.923058
17.34,0.252901,-0.291493,9.882085
17.35,0.248974,-0.083455,10.0327
17.36,0.116833,-0.046583,9.671478
17.37,0.24972,-0.01474,10.02608
17.38,0.298089,-0.176914,9.566881
17.39,0.259074,-0.23254,9.844654
17.4,0.393891,-0.09252,9.995287
17.41,0.317284,0.009595,9.693873
17.42,0.256213,-0.281442,10.030828
17.43,0.391105,-0.019962,9.58622
17.44,0.329873,-0.316222,9.960019
17.45,0.742986,-0.346275,10.099775
17.46,0.448862,-0.166536,10.171413
17.47,0.217968,-0.325994,10.230588
17.48,0.04093,-0.492614,9.790682
17.49,0.198015,-0.228428,9.869884
17.5,-0.006317,0.171931,9.812217
17.51,0.399469,-0.460127,10.08476
17.52,0.255199,-0.041327,9.961835
17.53,0.182093,-0.198808,9.916264
17.54,0.385068,-0.255179,9.900605
17.55,0.237371,-0.264794,10.007871
17.56,0.348731,-0.111653,9.745261
17.57,0.245971,-0.156125,10.035497
17.58,0.293162,-0.010412,9.945747
17.59,0.470352,0.243502,10.068236
17.6,0.408687,-0.039968,9.808866
17.61,0.480508,-0.152638,9.876237
17.62,0.310815,0.011092,10.057762
17.63,-0.019179,-0.129795,9.646555
17.64,0.142242,-0.088534,10.066251
17.65,-0.005266,-0.107707,9.79425
17.66,0.366526,0.15164,9.975158
17.67,0.222286,0.15388,9.974064
17.68,0.399713,0.010776,9.789079
17.69,0.356889,-0.168284,9.82048
17.7,0.172356,-0.068945,9.564438
17.71,0.442749,0.071572,9.478832
17.72,0.314076,0.26734,9.813895
17.73,0.17137,-0.349488,9.999648
17.74,0.213045,0.153859,9.749394
17.75,0.348283,0.230868,9.400825
17.76,0.191448,0.246401,9.683182
17.77,0.012281,0.260276,9.672385
17.78,-0.076638,0.322836,9.691597
17.79,0.047616,0.14048,9.564849
17.8,-0.027509,0.296731,9.611798
17.81,0.092388,-0.083924,9.466507
17.82,-0.028489,0.135095,10.099746
17.83,-0.021802,0.261801,10.024239
17.84,0.204489,0.143389,9.544011
17.85,0.257816,0.071888,9.719155
17.86,-0.120382,0.133408,9.596581
17.87,-0.070827,0.334616,9.669374
17.88,-0.06459,0.22305,9.763144
17.89,0.003864,0.23743,9.719643
17.9,-0.004604,0.304276,9.855986
17.91,-0.145258,0.28893,9.581179
17.92,-0.005417,0.4699,9.669348
17.93,-0.163769,0.427164,9.216063
17.94,-0.16293,0.314138,9.683875
17.95,-0.25551,0.207533,9.273552
17.96,0.024185,0.450822,9.415646
17.97,-0.006536,0.498242,9.866437
17.98,-0.10232,0.011784,9.862926
17.99,-0.066054,0.2263,9.445085
18.0,-0.010058,0.205802,9.929522
18.01,-0.074034,0.083991,9.745568
18.02,-0.087801,0.14738,9.696135
18.03,-0.271071,0.158205,9.39534
18.04,-0.441578,0.367198,9.926628
18.05,-0.34361,-0.009983,9.72517
18.06,0.095703,0.226338,9.445782
18.07,-0.2772,0.063715,9.165783
18.08,-0.009075,0.354387,9.369052
18.09,-0.175056,0.174584,9.601994
18.1,-0.267388,0.288585,9.530376
18.11,-0.404335,0.150165,9.833444
18.12,-0.380062,-0.119574,9.367118
18.13,-0.299383,0.031558,9.610169
18.14,-0.304321,0.356202,9.738927
18.15,-0.206131,0.171563,9.309061
18.16,-0.39324,0.372855,9.65178
18.17,-0.390599,0.288346,9.534734
18.18,-0.16573,-0.048428,9.434373
18.19,-0.0135,-0.167866,9.134266
18.2,-0.286586,0.182549,9.607438
18.21,-0.23343,0.157573,9.400392
18.22,-0.321916,-0.008086,9.449586
18.23,-0.308916,-0.24589,9.766719
18.24,-0.329849,-0.12237,9.505375
18.25,-0.34877,-0.030442,9.551409
18.26,-0.210699,0.046818,9.855604
18.27,-0.19849,-0.232237,9.531675
18.28,-0.324141,0.058554,9.354752
18.29,-0.369654,0.010768,9.7234
18.3,-0.350519,0.000336,9.505031
18.31,-0.176051,-0.05369,9.397137
18.32,-0.388514,-0.471012,9.325568
18.33,-0.414485,-0.109815,9.433053
18.34,-0.212949,-0.225401,9.653028
18.35,-0.258157,-0.09087,9.379407
18.36,-0.261325,-0.426447,9.508001
18.37,-0.10735,-0.499306,9.324556
18.38,-0.23154,-0.115966,9.730258
18.39,-0.312993,-0.346549,9.224161
18.4,-0.179751,-0.539295,9.293935
18.41,-0.293377,-0.385072,9.350164
18.42,-0.052583,-0.256758,9.222506
18.43,-0.171435,-0.067991,9.560928
18.44,-0.318217,-0.2353,9.587691
18.45,-0.129378,-0.331007,9.580208
18.46,-0.26047,-0.285791,9.586925
18.47,0.024681,-0.135374,9.194478
18.48,-0.132237,-0.167143,9.50789
18.49,-0.010722,-0.142496,9.708979
18.5,-0.185433,0.012556,9.399356
18.51,-0.109087,-0.240791,9.654221
18.52,-0.005093,-0.139695,9.431491
18.53,-0.077961,-0.564285,9.437624
18.54,-0.175103,-0.211913,9.242571
18.55,0.079459,-0.436962,9.374382
18.56,0.027309,-0.323762,9.691594
18.57,-0.163149,-0.29201,9.346251
18.58,-0.043101,-0.217035,9.802752
18.59,-0.098511,-0.296441,9.432736
18.6,-0.03527,-0.25832,9.705888
18.61,-0.017103,-0.094701,9.46583
18.62,0.027993,-0.169668,9.048561
18.63,-0.136434,-0.183032,9.335445
18.64,0.02674,-0.16317,9.33753
18.65,0.246131,-0.185866,9.344753
18.66,0.372549,0.0086,9.244504
18.67,-0.045052,-0.14179,9.294435
18.68,0.299667,0.22333,9.583662
18.69,0.484842,-0.034719,9.948652
18.7,0.131313,0.022059,9.514566
18.71,0.248347,-0.124107,9.417043
18.72,0.334593,0.020004,9.037299
18.73,0.127303,0.103565,9.840892
18.74,0.345184,-0.003765,9.678852
18.75,0.183474,-0.079407,9.407424
18.76,0.36493,0.157037,9.548234
18.77,0.457462,0.300818,9.410201
18.78,0.426976,-0.202312,9.286382
18.79,0.19893,-0.036099,9.429719
18.8,0.343088,0.042249,9.658824
18.81,0.18984,0.008749,9.573322
18.82,0.095483,0.067143,9.471838
18.83,0.239079,-0.060759,9.63177
18.84,0.400206,0.242348,9.460028
18.85,0.24146,0.119474,9.745579
18.86,0.504834,0.165216,9.336684
18.87,0.301749,0.097037,9.464647
18.88,0.132648,0.047735,9.676346
18.89,0.25459,0.063351,9.666968
18.9,0.201676,0.414208,9.420373
18.91,0.49663,0.035192,9.388573
18.92,0.37557,0.132659,9.642652
18.93,0.290731,-0.070709,9.812819
18.94,0.411347,0.281345,9.72171
18.95,0.182754,0.348831,9.351259
18.96,0.126825,-0.039791,9.447626
18.97,0.106602,0.120565,9.378119
18.98,0.018143,0.115194,9.833494
18.99,0.129961,0.18545,9.572461
19.0,0.370005,0.325503,9.533366
19.01,0.390525,0.241698,9.643059
19.02,0.145852,0.247835,9.684096
19.03,-0.030686,0.035537,9.533471
19.04,0.203969,0.243607,9.660386
19.05,0.333174,0.392809,9.633208
19.06,0.376301,0.264623,9.915982
19.07,0.280314,-0.053798,9.632503
19.08,0.084916,0.434958,9.704437
19.09,0.336723,0.443791,9.524002
19.1,0.277877,0.322208,9.532155
19.11,0.32039,0.372115,9.732069
19.12,0.066181,0.298531,9.490891
19.13,0.266782,0.319093,9.720959
19.14,0.309633,0.127195,9.62376
19.15,-0.034006,0.324234,9.783497
19.16,0.065207,-0.138569,9.326983
19.17,-0.081991,0.16424,9.945134
19.18,0.012667,0.315739,9.394492
19.19,0.107055,0.388089,10.020259
19.2,-0.106696,0.220179,9.717708
19.21,0.264899,0.326506,9.802755
19.22,0.254508,0.1266,9.708564
19.23,0.053222,0.218505,9.737474
19.24,-0.038605,0.217105,9.557789
19.25,0.040349,-0.256932,9.847951
19.26,0.252722,0.201251,9.82233
19.27,0.114429,0.088403,9.825199
19.28,-0.262354,0.089927,10.024648
19.29,-0.34372,0.177484,9.509621
19.3,-0.154731,-0.050981,9.783044
19.31,-0.038448,0.018971,9.506993
19.32,-0.30043,0.011448,9.991703
19.33,-0.088974,0.044742,9.919766
19.34,-0.322404,-0.34989,9.752131
19.35,-0.082497,0.059267,9.961159
19.36,-0.063653,0.051404,9.897782
19.37,0.146946,-0.264576,9.547073
19.38,-0.140691,-0.193374,9.939212
19.39,-0.186104,0.074617,9.673631
19.4,0.055515,-0.255351,9.862602
19.41,-0.057969,0.102373,10.010021
19.42,-0.160666,-0.272866,9.856071
19.43,-0.22349,0.000988,9.842099
19.44,0.066825,-0.300728,10.116255
19.45,-0.308215,-0.042712,9.898751
19.46,-0.429691,-0.143027,9.827
19.47,-0.246149,-0.15064,9.595078
19.48,-0.273722,-0.350921,9.890779
19.49,-0.053894,-0.205564,10.018594
19.5,-0.219354,-0.329593,10.168176
19.51,-0.112947,-0.352157,9.624091
19.52,-0.641319,-0.028017,9.992652
19.53,-0.313928,0.197891,10.042174
19.54,-0.048457,-0.351405,9.848263
19.55,-0.437161,-0.176997,10.229338
19.56,-0.322178,-0.10256,9.785835
19.57,-0.158869,-0.341324,10.272667
19.58,-0.364316,-0.381325,9.973986
19.59,-0.174564,-0.249671,10.093712
19.6,-0.385306,-0.247412,9.887788
19.61,-0.302479,-0.628238,9.690752
19.62,-0.197833,-0.20982,9.954226
19.63,-0.463276,-0.125284,10.095105
19.64,-0.422091,-0.169322,9.886857
19.65,-0.162715,-0.278546,9.939551
19.66,-0.417327,-0.453123,10.010584
19.67,-0.278904,-0.161012,9.727857
19.68,-0.149928,-0.339934,9.955563
19.69,-0.279754,-0.264751,10.049935
19.7,-0.249652,-0.20887,9.922142
19.71,-0.054586,-0.081331,10.246055
19.72,0.062206,-0.037392,10.068704
19.73,-0.257811,-0.15268,9.64923
19.74,-0.33664,-0.169285,9.946055
19.75,-0.142307,-0.048644,9.918177
19.76,-0.377579,-0.284434,9.893782
19.77,-0.057346,-0.244039,10.329401
19.78,-0.329141,0.089532,10.169839
19.79,-0.302839,0.102794,9.993539
19.8,-0.385063,-0.369186,9.98197
19.81,-0.349903,-0.166327,10.013815
19.82,-0.036403,0.060899,9.970206
19.83,-0.152616,-0.007489,9.954092
19.84,-0.202011,-0.073207,10.17483
19.85,0.12368,-0.218709,9.716368
19.86,-0.155522,-0.099527,10.18525
19.87,-0.164977,-0.135383,9.821198
19.88,-0.318006,0.209569,10.191516
19.89,-0.260912,-0.094223,10.294998
19.9,-0.268078,0.052792,9.919189
19.91,-0.218523,0.110277,9.978571
19.92,-0.173581,0.04495,10.288958
19.93,-0.133683,0.068809,10.060289
19.94,0.02667,-0.103383,9.979131
19.95,-0.069216,0.043138,9.992494
19.96,0.215716,0.065466,10.560705
19.97,0.055075,0.03582,10.039184
19.98,-0.132334,0.346794,10.222393
19.99,0.054634,0.437876,10.250901
20.0,0.022685,0.308807,10.417795
20.01,0.222666,0.398594,10.486295
20.02,0.149544,0.086902,9.802161
20.03,0.049633,0.159228,10.404122
20.04,0.314795,0.070801,10.170108
20.05,0.149039,0.225201,9.961776
20.06,0.168431,0.082033,10.324618
20.07,0.316382,0.063365,9.987666
20.08,0.231911,-0.181325,10.384568
20.09,0.148067,0.302392,10.084347
20.1,0.116045,0.415406,10.348023
20.11,-0.163315,0.402694,10.288901
20.12,-0.125769,0.360574,9.938933
20.13,0.144726,0.370981,9.903526
20.14,0.089984,0.202848,10.188347
20.15,0.186696,0.01289,10.071163
20.16,0.346676,0.088326,10.278395
20.17,0.088096,0.203196,10.117495
20.18,-0.02299,-0.078382,10.003543
20.19,0.027651,0.329293,10.22232
20.2,0.083527,0.304065,9.786666
20.21,0.068315,0.317451,9.92083
20.22,0.25354,0.369668,9.973051
20.23,0.485154,-0.043373,9.727967
20.24,0.353279,0.102112,10.22417
20.25,0.37062,0.040232,10.004411
20.26,0.305903,0.120641,10.199888
20.27,0.092416,0.091706,10.290992
20.28,0.618997,-0.135655,10.38384
20.29,0.23932,0.283246,10.29825
20.3,0.406966,0.371265,9.865001
20.31,-0.042116,0.048522,9.98957
20.32,0.282652,0.052808,9.837744
20.33,0.272083,0.262244,9.983856
20.34,0.25908,0.112769,10.411133
20.35,0.089629,0.195405,10.199145
20.36,0.329726,-0.05358,10.32262
20.37,0.482499,0.176937,9.901026
20.38,0.613458,0.131208,10.102207
20.39,0.544199,-0.009242,10.24455
20.4,0.484377,0.037537,9.953227
20.41,0.548259,-0.288317,10.091802
20.42,0.562509,-0.024978,10.299617
20.43,0.146176,0.006771,10.306894
20.44,0.318043,-0.074426,10.218981
20.45,0.083859,-0.153908,10.113779
20.46,0.350617,0.167422,10.137538
20.47,0.226882,0.132686,9.913558
20.48,0.234069,-0.061195,10.449481
20.49,0.209182,-0.026524,9.876204
20.5,-0.131639,-0.366299,10.337559
20.51,-0.051616,-0.275407,9.754119
20.52,0.354652,-0.189396,10.047847
20.53,0.116325,-0.290827,10.161049
20.54,0.361531,0.007136,9.957812
20.55,0.174208,-0.24855,9.814522
20.56,-0.049614,-0.347017,9.932528
20.57,-0.032229,0.124134,10.031729
20.58,0.066318,0.090776,10.102418
20.59,0.016794,-0.084971,10.046121
20.6,0.13126,-0.494866,10.08595
20.61,0.170643,0.009984,10.118865
20.62,0.171889,-0.002666,10.174918
20.63,0.142911,-0.484796,9.966354
20.64,0.228888,-0.570706,10.105804
20.65,0.234108,-0.318956,9.82803
20.66,-0.068483,-0.185859,9.744904
20.67,-0.221643,-0.029729,9.94578
20.68,-0.05671,-0.529073,10.583461
20.69,0.044493,0.023365,10.016855
20.7,-0.059983,-0.500744,10.165196
20.71,0.100606,-0.119946,10.222114
20.72,-0.207362,-0.253998,9.947018
20.73,0.216335,-0.059999,10.264999
20.74,0.083798,-0.189943,10.081066
20.75,-0.104714,-0.253329,10.182779
20.76,-0.174452,-0.137686,10.015992
20.77,-0.095571,-0.354234,10.020248
20.78,0.08666,-0.248513,10.225482
20.79,-0.157939,-0.426444,9.875277
20.8,-0.197671,-0.10822,10.016877
20.81,-0.123337,-0.034174,9.968374
20.82,-0.322823,-0.13489,9.97013
20.83,0.015164,-0.161339,10.065138
20.84,-0.064343,-0.229917,9.993789
20.85,-0.032767,0.185425,9.916072
20.86,0.028455,-0.17036,10.225976
20.87,-0.308369,-0.38868,9.986729
20.88,-0.19748,-0.058035,9.796037
20.89,-0.223645,-0.122479,9.906308
20.9,0.018953,0.192797,9.899168
20.91,-0.289668,-0.107753,9.792357
20.92,-0.50441,-0.296447,9.804661
20.93,-0.312815,0.174975,9.857949
20.94,-0.118358,-0.020874,9.962324
20.95,-0.178274,-0.137978,9.661514
20.96,-0.278721,0.300274,9.961024
20.97,-0.327659,-0.029126,9.814801
20.98,-0.224923,-0.09391,9.649657
20.99,-0.196037,0.146904,9.931856
21.0,-0.252761,0.162104,9.888009
21.01,-0.341456,0.169765,9.928715
21.02,-0.297007,0.247842,10.018399
21.03,-0.377062,-0.225271,10.142374
21.04,-0.14205,0.19871,9.820882
21.05,-0.318417,0.098969,9.750737
21.06,-0.439865,0.120314,9.771484
21.07,0.038919,0.036925,9.723138
21.08,-0.409047,0.062029,9.681803
21.09,-0.432983,0.100449,9.776892
21.1,-0.478163,0.169276,9.492348
21.11,-0.398761,-0.16959,9.911597
21.12,-0.181246,0.278416,9.818476
21.13,-0.527258,0.327484,10.020989
21.14,-0.2623,0.260368,9.586646
21.15,-0.369699,0.28749,9.993784
21.16,-0.399249,0.35204,9.899424
21.17,-0.533084,0.250116,9.551469
21.18,-0.273082,0.54939,9.519285
21.19,-0.517171,0.228292,9.770161
21.2,-0.295394,0.379555,9.808362
21.21,-0.194777,0.103801,9.839158
21.22,-0.577043,0.221844,9.577966
21.23,-0.125867,0.41138,10.11677
21.24,-0.517851,0.22254,9.476953
21.25,0.060256,0.165025,9.883062
21.26,-0.231732,0.301382,9.354116
21.27,-0.322124,0.256312,9.519934
21.28,-0.151647,0.109956,9.814259
21.29,-0.306898,0.190042,9.963798
21.3,-0.525129,0.277887,9.845097
21.31,0.021304,-0.122074,9.608426
21.32,-0.189971,0.244583,9.424443
21.33,-0.11467,0.097576,9.855575
21.34,-0.138729,0.188857,9.589102
21.35,-0.226195,0.031125,9.876396
21.36,-0.25666,0.160848,9.816495
21.37,0.032991,0.476791,9.70015
21.38,0.01325,0.046069,9.453914
21.39,-0.05715,0.089964,9.459628
21.4,0.115658,0.124223,9.698327
21.41,-0.035637,-0.149521,9.613788
21.42,0.156341,-0.101971,9.92079
21.43,0.223277,0.230027,9.687441
21.44,0.177456,0.04689,9.66758
21.45,0.089803,0.393309,9.847699
21.46,-0.110116,-0.029496,9.449579
21.47,0.12088,0.377172,9.654091
21.48,-0.003822,-0.17771,9.402242
21.49,0.188095,0.047386,9.713396
21.5,0.335,-0.076847,9.832752
21.51,0.091637,0.158822,9.578509
21.52,-0.050546,-0.068454,9.236523
21.53,0.234645,-0.065171,9.718672
21.54,0.139962,-0.013572,9.804828
21.55,0.383165,0.371384,9.395353
21.56,0.172036,0.180939,9.405299
21.57,0.164263,-0.110304,9.698489
21.58,0.199742,-0.198787,9.352529
21.59,0.241756,-0.20082,9.314819
21.6,-0.091885,-0.248003,9.350353
21.61,0.093039,0.059367,9.428667
21.62,0.389836,-0.219493,9.640858
21.63,0.134541,0.060529,9.532117
21.64,0.236105,0.047042,9.672725
21.65,0.213754,-0.168043,9.601454
21.66,0.152272,-0.379134,9.738962
21.67,0.237817,-0.050094,9.682339
21.68,0.114896,-0.365349,9.291683
21.69,0.051666,-0.185428,9.426669
21.7,0.309842,0.030872,9.717086
21.71,0.525283,-0.568163,9.558065
21.72,0.399628,-0.253729,9.388594
21.73,0.406242,-0.316502,9.413997
21.74,0.452108,-0.29545,9.63619
21.75,0.327139,-0.444211,9.411915
21.76,0.301629,0.075746,9.680943
21.77,0.170399,-0.215428,9.437748
21.78,0.418133,-0.551371,9.741309
21.79,0.341511,-0.191159,9.682268
21.8,0.196176,-0.079489,9.368024
21.81,0.25105,-0.261135,9.608637
21.82,0.127618,-0.005781,9.220976
21.83,0.373116,-0.563178,9.477315
21.84,0.52321,-0.077949,9.462335
21.85,0.11865,-0.284915,9.158459
21.86,0.440883,-0.378808,9.145597
21.87,0.46099,-0.121798,9.678109
21.88,0.100133,-0.120686,9.455293
21.89,-0.041127,-0.00397,9.489812
21.9,0.272328,-0.005422,9.409066
21.91,0.230226,-0.208179,9.689448
21.92,0.216144,-0.453486,9.192583
21.93,0.410591,-0.477439,9.615178
21.94,0.180741,-0.454518,9.819932
21.95,0.587932,-0.251696,9.320283
21.96,-0.014277,-0.139699,9.291858
21.97,0.076629,-0.083621,9.536964
21.98,0.066093,-0.069191,9.585791
21.99,0.158741,-0.26773,9.239314
22.0,0.389395,0.073301,9.407423
22.01,-0.002032,0.121153,9.746794
22.02,0.018804,-0.259496,9.819856
22.03,0.047666,-0.110686,9.447947
22.04,0.117667,0.020777,9.503129
22.05,0.143384,0.150516,9.539129
22.06,0.048392,0.035869,8.982927
22.07,-0.098832,-0.130153,9.350827
22.08,0.067296,-0.18041,9.479885
22.09,0.284148,-0.17461,9.913572
22.1,0.193532,-0.036943,9.570732
22.11,-0.025334,-0.061079,9.759912
22.12,0.040827,-0.162423,9.466132
22.13,0.091851,0.151315,9.584277
22.14,0.136516,0.00566,9.333665
22.15,0.220757,0.137384,9.243386
22.16,0.017692,-0.109739,9.309281
22.17,-0.211614,0.249897,9.436233
22.18,-0.278368,0.235805,9.501811
22.19,0.028671,0.297094,9.407467
22.2,-0.291727,0.117757,9.101687
22.21,0.035051,0.111933,9.648483
22.22,-0.189295,0.252551,9.372462
22.23,-0.294468,0.363447,9.53139
22.24,-0.047324,0.175761,9.395907
22.25,-0.289643,-0.045637,9.712791
22.26,-0.077,0.129517,9.220187
22.27,-0.131759,0.409054,9.702361
22.28,-0.455396,0.329585,9.461191
22.29,0.031542,0.267114,9.485957
22.3,0.002825,0.163197,9.556537
22.31,-0.05847,0.488722,9.540979
22.32,-0.064863,0.08248,9.809617
22.33,-0.329282,0.244228,9.680045
22.34,-0.05486,0.317035,9.808123
22.35,-0.123347,0.311729,9.662784
22.36,-0.55872,0.130228,9.553787
22.37,-0.397099,0.374353,9.562134
22.38,-0.372874,0.339647,9.301036
22.39,-0.043902,0.277007,9.935997
22.4,-0.41632,0.312072,9.575929
22.41,-0.364796,0.165234,9.284752
22.42,-0.47422,0.521283,9.425483
22.43,-0.357522,0.442087,9.333258
22.44,-0.134455,0.135978,9.491848
22.45,-0.50628,0.204822,9.727707
22.46,-0.224593,0.396018,9.261971
22.47,-0.428934,0.316649,9.876851
22.48,-0.016306,0.229117,9.532072
22.49,-0.282474,0.054607,9.612504
22.5,-0.31261,0.061194,9.644123
22.51,-0.386846,0.197586,9.465885
22.52,-0.266597,0.427147,9.798796
22.53,-0.51803,0.34104,9.422513
22.54,-0.280764,0.249474,9.959698
22.55,-0.380792,0.255767,9.49773
22.56,-0.384131,-0.211604,9.688277
22.57,0.023066,0.166205,9.578028
22.58,-0.071031,0.152083,9.904648
22.59,-0.057764,-0.126996,9.509795
22.6,-0.143909,0.415138,9.973497
22.61,-0.204365,0.136758,10.114192
22.62,-0.039013,0.138194,9.483963
22.63,-0.203067,-0.073823,9.400209
22.64,-0.152158,0.065294,9.698159
22.65,-0.029022,0.034318,9.780299
22.66,-0.106314,0.285805,9.720309
22.67,-0.153464,0.127641,9.717062
22.68,-0.091449,-0.001101,9.898222
22.69,-0.184555,-0.272067,9.845194
22.7,-0.115046,-0.246959,9.500267
22.71,-0.090265,-0.458413,9.66374
22.72,-0.355351,-0.136189,10.040883
22.73,-0.269603,-0.021587,9.837581
22.74,-0.038631,-0.100101,9.808463
22.75,-0.116425,-0.027318,9.594469
22.76,-0.126964,0.185408,9.964021
22.77,-0.068157,-0.290012,9.835668
22.78,-0.397254,-0.301881,9.842013
22.79,-0.112724,-0.150546,10.027893
22.8,-0.098731,-0.413839,9.668799
22.81,-0.034758,-0.197699,10.076144
22.82,0.079451,-0.26602,9.925853
22.83,-0.090512,-0.396719,10.086206
22.84,0.179048,-0.408006,9.833097
22.85,-0.155441,-0.298764,10.121563
22.86,0.107834,-0.329708,9.388698
22.87,-0.060903,-0.28468,9.65531
22.88,0.205282,-0.033911,9.743154
22.89,0.076332,-0.081874,9.779237
22.9,-0.1247,-0.182937,10.119745
22.91,0.084605,-0.142552,9.577616
22.92,0.141973,-0.398521,10.094763
22.93,0.128311,-0.153447,9.936629
22.94,0.156254,-0.396559,9.742907
22.95,0.08541,-0.156156,10.267433
22.96,0.047265,0.031442,9.71415
22.97,-0.103712,-0.09039,10.125289
22.98,0.241779,-0.103094,10.206077
22.99,0.241647,-0.392201,9.637853
23.0,0.462843,-0.227899,9.792511
23.01,0.18062,-0.177899,10.229045
23.02,0.238603,-0.05615,10.022792
23.03,0.229381,-0.313495,10.117199
23.04,0.346051,-0.211317,10.015954
23.05,0.147877,0.055441,10.148375
23.06,0.256131,-0.169795,9.796071
23.07,0.245676,-0.506114,10.152725
23.08,0.360713,-0.327318,9.994079
23.09,0.589547,-0.246924,9.991086
23.1,0.312538,-0.287505,9.789005
23.11,0.052284,-0.084637,9.759021
23.12,0.098754,0.061135,10.017767
23.13,0.437896,0.101139,10.268931
23.14,0.034546,0.124586,10.08844
23.15,0.335561,-0.160081,9.881446
23.16,0.181893,-0.091446,10.029532
23.17,0.699026,-0.058109,10.0154
23.18,0.114758,0.409557,9.921071
23.19,0.198999,0.044608,10.148653
23.2,0.416609,-0.021525,9.903198
23.21,0.265177,-0.122552,9.958165
23.22,0.192026,0.208502,9.888141
23.23,0.154458,-0.145952,9.952351
23.24,0.199548,0.093651,10.368663
23.25,0.16037,0.057424,9.968863
23.26,0.292053,0.031912,10.012989
23.27,0.579804,0.382543,10.24655
23.28,0.596931,0.191204,10.292983
23.29,0.590303,0.276054,10.017861
23.3,0.259405,-0.042934,10.33785
23.31,0.381185,0.301238,9.937763
23.32,0.287198,0.366012,10.239842
23.33,0.138893,0.208115,10.106749
23.34,-0.015332,0.110437,10.200418
23.35,-0.016189,0.065403,10.233627
23.36,0.263736,0.199675,10.115066
23.37,0.027811,0.175818,10.223536
23.38,0.104463,0.123607,10.272338
23.39,0.270131,0.292663,9.841468
23.4,-0.144473,0.258648,9.977302
23.41,0.415729,0.177398,10.301023
23.42,0.193287,0.185554,9.792231
23.43,0.118343,-0.011626,9.935637
23.44,0.068161,0.223548,10.418663
23.45,0.223649,0.065053,10.075073
23.46,-0.003499,0.19573,10.179065
23.47,0.327544,0.300389,10.217716
23.48,0.247549,-0.021687,10.226606
23.49,-0.003511,0.212663,10.053899
23.5,0.063282,0.306914,10.082816
23.51,0.262019,0.022311,10.533859
23.52,0.128145,0.157909,9.908722
23.53,0.020431,0.046082,10.022496
23.54,-0.070326,0.37306,9.937866
23.55,0.011379,0.142648,10.111148
23.56,-0.046957,0.130044,9.979823
23.57,0.048241,0.353833,10.374323
23.58,-0.058388,0.18032,10.431044
23.59,-0.169593,0.482451,10.137881
23.6,0.127024,0.28254,9.960113
23.61,0.030865,0.262118,10.470879
23.62,-0.213242,0.257686,10.004744
23.63,-0.16488,0.369144,10.179892
23.64,0.017368,-0.30254,10.204964
23.65,-0.227434,0.255854,9.960439
23.66,-0.13946,0.017813,10.059902
23.67,-0.169647,-0.049272,10.467397
23.68,-0.246375,0.09487,10.18136
23.69,-0.308695,0.090354,10.218766
23.7,-0.168966,-0.17261,10.27484
23.71,-0.311293,-0.101518,10.203123
23.72,-0.271847,-0.148836,10.305452
23.73,-0.065259,-0.076796,10.219272
23.74,-0.310165,0.111093,10.09521
23.75,-0.14353,-0.035703,10.685524
23.76,-0.077664,0.050335,10.008296
23.77,-0.246015,-0.125689,10.042684
23.78,-0.161721,0.183586,10.358997
23.79,-0.374529,-0.103529,10.248773
23.8,-0.142121,0.085298,10.030337
23.81,-0.163362,-0.053329,10.013503
23.82,-0.048191,-0.192964,10.097944
23.83,-0.096455,0.235431,10.151531
23.84,-0.237856,0.082666,10.092139
23.85,0.131788,-0.147555,9.994964
23.86,-0.153894,0.010364,10.206795
23.87,-0.099167,-0.142095,10.092723
23.88,-0.362343,-0.192105,10.236146
23.89,-0.351005,-0.267516,10.100599
23.9,-0.286786,-0.17441,9.797541
23.91,-0.449353,-0.135735,10.154353
23.92,-0.294109,-0.159883,10.238103
23.93,-0.305885,-0.113653,10.129558
23.94,-0.135488,-0.212366,9.769003
23.95,-0.123588,-0.41171,10.101964
23.96,-0.278979,-0.16307,9.961263
23.97,-0.350942,-0.339115,10.052037
23.98,-0.023782,-0.485657,10.125822
23.99,-0.517175,-0.277759,9.988002
24.0,-0.518083,-0.326592,10.140736
24.01,-0.208861,-0.377661,10.108473
24.02,-0.286472,-0.449634,10.080589
24.03,-0.316724,-0.213442,9.947104
24.04,-0.539071,-0.355285,10.185918
24.05,-0.389964,-0.397049,10.266098
24.06,-0.029563,-0.196465,9.993885
24.07,-0.047692,-0.285271,9.904657
24.08,-0.117294,-0.198155,9.913372
24.09,-0.34993,-0.272664,10.123495
24.1,-0.268658,-0.192109,9.993333
24.11,-0.269817,-0.459829,9.926803
24.12,-0.301331,-0.017727,9.830886
24.13,-0.271393,-0.4879,10.028587
24.14,-0.194508,-0.094146,10.062558
24.15,-0.389976,-0.231982,9.932856
24.16,0.019571,0.12112,9.989319
24.17,-0.166505,-0.188471,10.023348
24.18,-0.209841,-0.084688,10.093497
24.19,-0.359042,-0.486401,9.763561
24.2,0.006978,0.02175,9.786582
24.21,-0.25438,-0.083234,9.836328
24.22,-0.013214,-0.409239,9.907617
24.23,-0.204911,-0.229664,9.812437
24.24,-0.042802,-0.163069,9.838919
24.25,-0.23929,0.06025,10.012572
24.26,-0.059398,-0.131186,9.61606
24.27,-0.03237,-0.270075,9.727669
24.28,0.016703,-0.131351,9.740466
24.29,0.138168,0.033104,10.081828
24.3,0.09631,-0.051365,9.864285
24.31,0.266436,0.078154,9.884389
24.32,-0.169502,-0.372349,9.68654
24.33,0.371764,0.281618,9.741944
24.34,0.211979,0.01751,9.360819
24.35,0.017339,0.083967,9.826769
24.36,0.244637,0.17969,9.688784
24.37,0.373658,0.253513,9.511864
24.38,0.287761,0.250169,9.850542
24.39,-0.015285,-0.02786,9.621411
24.4,0.150681,-0.146825,9.800011
24.41,0.269162,0.19225,9.827087
24.42,0.162337,0.308725,10.26859
24.43,0.243836,0.216874,9.692096
24.44,0.264767,-0.159811,9.790319
24.45,0.050404,0.472094,9.740729
24.46,0.396898,0.096389,9.605366
24.47,0.231133,0.313505,9.7729
24.48,0.219555,-0.091918,9.868551
24.49,0.099785,0.412413,9.821495
24.5,0.206419,0.360363,9.841583
24.51,0.390735,0.15302,9.567719
24.52,0.293218,0.417438,9.71782
24.53,0.369939,0.257461,9.411568
24.54,0.264727,0.360637,9.381167
24.55,0.288532,0.222102,9.991516
24.56,0.034037,0.136534,9.699792
24.57,0.343427,0.517693,9.786853
24.58,0.259367,0.318914,9.78141
24.59,0.339528,0.040831,9.655992
24.6,-0.02794,0.27181,9.89534
24.61,0.676866,0.353811,9.624508
24.62,0.309513,0.414397,9.255528
24.63,0.36878,0.566841,9.669308
24.64,0.358069,0.336231,9.800632
24.65,0.25245,0.129749,9.372431
24.66,0.362401,0.202232,9.569925
24.67,0.475942,0.425425,9.814966
24.68,0.322752,0.119224,9.769452
24.69,0.422318,0.248051,9.580613
24.7,0.405931,0.137485,9.460083
24.71,0.392974,0.154582,9.592167
24.72,0.56053,0.158773,9.631859
24.73,0.33113,0.218065,9.716399
24.74,0.261506,0.153348,9.551991
24.75,0.260919,-0.078392,9.852617
24.76,0.322345,0.336896,9.609786
24.77,0.051473,0.307822,9.499661
24.78,0.456977,0.160608,9.458564
24.79,0.202761,0.305139,9.399542
24.8,0.217354,0.215819,9.733117
24.81,0.027041,0.210975,9.508593
24.82,0.229881,0.127095,9.026167
24.83,0.000656,0.178451,9.46588
24.84,-0.058255,-0.103094,9.753244
24.85,0.074348,-0.011704,9.444764
24.86,0.136289,-0.195564,9.281014
24.87,0.033694,-0.16875,9.434099
24.88,0.193961,0.182517,9.621904
24.89,0.323479,0.043818,9.468036
24.9,0.160467,-0.107557,9.339986
24.91,-0.216798,-0.191966,9.60965
24.92,0.100628,-0.268142,9.708571
24.93,0.178024,-0.256463,9.760931
24.94,0.022715,-0.181456,9.531343
24.95,0.112772,-0.527274,9.459954
24.96,0.092236,0.021392,9.566942
24.97,-0.125491,-0.079571,9.71223
24.98,0.207034,-0.075754,9.670437
24.99,-0.030239,-0.054685,9.467853
25.0,-0.049328,-0.166053,9.307646
25.01,0.054611,-0.139266,9.520508
25.02,-0.267117,-0.188187,9.472238
25.03,0.15043,0.026873,9.554336
25.04,-0.199865,-0.335754,9.27384
25.05,0.20594,-0.083588,9.35048
25.06,0.090719,-0.377501,9.625332
25.07,-0.242473,-0.397409,9.499164
25.08,-0.0534,-0.450052,9.252264
25.09,-0.259076,-0.523452,9.698273
25.1,-0.291745,-0.200715,9.408541
25.11,-0.514226,-0.397428,9.528852
25.12,-0.055943,-0.196964,9.371899
25.13,-0.230813,-0.002717,9.507647
25.14,-0.055518,-0.318372,9.693543
25.15,-0.150048,-0.195225,9.693867
25.16,-0.376727,-0.095264,9.735082
25.17,-0.077831,-0.205672,9.370507
25.18,-0.135573,-0.22868,9.572426
25.19,-0.29446,-0.497287,9.155175
25.2,-0.084884,-0.223623,9.514688
25.21,-0.279908,-0.145951,9.789225
25.22,-0.364979,0.038781,9.238679
25.23,-0.282908,-0.282196,9.306986
25.24,-0.31651,-0.037646,9.431589
25.25,-0.489899,-0.307131,9.414354
25.26,-0.668509,-0.066481,9.607486
25.27,-0.031206,-0.322964,9.596315
25.28,-0.113055,-0.170433,9.09509
25.29,-0.065299,-0.277723,9.274332
25.3,-0.155281,-0.168342,9.436028
25.31,-0.355655,-0.158124,9.362209
25.32,-0.322405,-0.133801,9.532237
25.33,-0.390268,-0.255221,9.54228
25.34,-0.217978,-0.131116,9.066119
25.35,-0.228911,-0.060092,9.416314
25.36,-0.351405,-0.147748,9.321322
25.37,-0.2338,-0.215934,9.49795
25.38,-0.124468,-0.184641,9.599666
25.39,-0.297306,0.090104,9.443919
25.4,-0.469241,-0.043465,9.253891
25.41,-0.223452,0.178791,9.724773
25.42,-0.472064,-0.053011,9.348412
25.43,-0.406057,-0.024906,9.39835
25.44,-0.238871,0.092105,9.153221
25.45,-0.182526,0.108737,9.594799
25.46,-0.255522,0.240347,9.505022
25.47,-0.415737,-0.270877,9.593861
25.48,0.160507,0.138674,9.363269
25.49,-0.328484,-0.078933,9.629078
25.5,-0.174462,0.075416,9.770468
25.51,-0.322343,-0.059741,9.10727
25.52,-0.367253,0.151518,9.602976
25.53,-0.209597,-0.028459,9.263399
25.54,-0.274435,-0.141901,9.612001
25.55,-0.184106,-0.01906,9.727552
25.56,-0.286696,0.336361,9.352651
25.57,-0.157654,0.276002,9.397226
25.58,-0.27961,0.375607,9.571955
25.59,0.005527,-0.09956,9.549066
25.6,-0.099841,0.469977,9.310143
25.61,-0.151636,0.568439,9.458657
25.62,-0.123343,0.061263,9.426753
25.63,-0.165228,0.28093,9.529258
25.64,-0.078378,0.136544,9.891038
25.65,0.140946,0.352099,9.608483
25.66,-0.15664,0.486931,9.391697
25.67,-0.034004,0.09628,9.639213
25.68,-0.1602,0.048893,9.549128
25.69,-0.40427,0.209168,9.859597
25.7,0.073097,0.794873,9.52576
25.71,0.156103,0.376045,9.556862
25.72,0.072881,0.324505,9.817088
25.73,0.370919,0.402407,9.469865
25.74,-0.020104,0.421349,9.41354
25.75,-0.087398,0.293714,9.682576
25.76,0.237503,0.231963,9.669935
25.77,0.259684,0.148789,9.405989
25.78,0.250228,0.263282,9.292891
25.79,-0.064049,0.396214,9.714784
25.8,0.005612,0.380643,9.719619
25.81,-0.123799,0.128247,9.766373
25.82,0.430468,0.185683,9.856385
25.83,0.008143,0.014761,9.699122
25.84,-0.023428,0.346252,9.659472
25.85,0.15299,0.252986,9.822661
25.86,0.196975,0.123711,9.7181
25.87,0.289707,0.090768,9.436715
25.88,0.180264,-0.00287,9.754343
25.89,0.107546,0.143102,9.835926
25.9,0.15933,0.342896,9.561153
25.91,0.136978,-0.011541,10.039616
25.92,0.444924,-0.113476,9.680917
25.93,0.242859,0.097494,9.937665
25.94,0.346476,0.243572,9.573978
25.95,0.226833,0.196375,9.906126
25.96,-0.009338,0.220979,10.011387
25.97,0.517087,-0.05296,9.626398
25.98,0.363138,0.143493,9.829429
25.99,0.339139,0.052143,9.740878
26.0,-0.032741,-0.057293,9.605569
26.01,0.268252,-0.027599,9.817019
26.02,0.52372,0.077108,9.745123
26.03,0.489382,0.026093,9.762598
26.04,0.26449,0.009065,9.606254
26.05,0.481573,0.014065,9.977271
26.06,0.535157,-0.160684,9.754237
26.07,0.276815,-0.311403,9.783069
26.08,0.49749,-0.22878,9.654773
26.09,0.489966,-0.004635,10.043659
26.1,0.42346,-0.362416,9.620188
26.11,0.436049,-0.158296,9.573659
26.12,0.162201,-0.14796,9.894268
26.13,0.407835,-0.071597,9.786198
26.14,0.267626,-0.381125,9.994915
26.15,0.146636,-0.536761,10.167625
26.16,0.50562,-0.292677,10.125984
26.17,0.254569,-0.130541,10.073511
26.18,0.301614,-0.01315,9.743444
26.19,0.281259,-0.328125,10.102165
26.2,0.019816,-0.359108,9.838452
26.21,0.201638,-0.201135,9.721142
26.22,0.354242,0.070936,10.0304
26.23,0.232105,-0.175732,9.86106
26.24,0.168313,-0.167069,9.916566
26.25,0.262159,0.044658,10.072405
26.26,0.363712,-0.109957,10.097205
26.27,-0.052477,-0.224835,9.907904
26.28,0.16668,-0.41733,9.993414
26.29,0.17462,-0.236592,10.140791
26.3,0.426164,-0.136703,9.850226
26.31,0.330419,-0.398197,9.700707
26.32,-0.069205,-0.097924,9.903541
26.33,0.326998,-0.250075,9.938919
26.34,0.09132,-0.259629,9.979337
26.35,-0.139796,-0.361375,10.415791
26.36,-0.112375,-0.162165,9.883082
26.37,0.281225,-0.104843,9.989445
26.38,0.131783,-0.359659,9.86923
26.39,-0.096806,-0.112727,10.072075
26.4,0.275042,-0.046364,10.128793
26.41,0.130954,-0.044448,10.174242
26.42,-0.027101,-0.1256,10.090082
26.43,0.042965,-0.197321,10.066556
26.44,-0.146609,-0.176888,9.617856
26.45,0.271635,-0.334344,10.187904
26.46,-0.219276,-0.207289,10.311207
26.47,-0.247617,-0.144008,9.927243
26.48,-0.038079,-0.20829,9.916566
26.49,0.352047,-0.051697,9.879785
26.5,-0.303569,0.163721,10.192483
26.51,0.017129,0.204333,9.881967
26.52,-0.106944,-0.12002,10.066671
26.53,-0.069522,0.245908,9.825567
26.54,0.030098,0.16559,10.171752
26.55,-0.255527,-0.094468,10.02255
26.56,-0.202568,0.098797,10.142718
26.57,-0.278209,0.034808,9.953853
26.58,0.024892,-0.25708,9.982945
26.59,-0.004713,-0.126028,10.011407
26.6,-0.373973,0.185619,9.964681
26.61,-0.157638,-0.140474,9.958848
26.62,-0.066474,0.375948,9.893472
26.63,-0.470887,0.268364,10.211579
26.64,-0.032248,0.232871,10.18353
26.65,-0.257895,-0.091513,10.056068
26.66,-0.323317,0.310597,10.270412
26.67,-0.052466,0.308703,10.40299
26.68,-0.098529,0.310013,10.01182
26.69,-0.479104,0.325842,10.179251
26.7,-0.170777,0.455719,10.181467
26.71,-0.181412,0.093393,10.03005
26.72,-0.614621,0.180953,9.913071
26.73,-0.206861,0.085511,10.589945
26.74,-0.355778,0.341586,10.212368
26.75,-0.12696,0.194105,10.157545
26.76,-0.426378,0.034961,10.212113
26.77,-0.280887,0.251098,10.59115
26.78,-0.38021,-0.057591,10.116534
26.79,-0.395302,0.257091,10.165404
26.8,-0.627615,0.266446,10.168254
26.81,-0.138466,0.182699,10.354589
26.82,-0.122499,0.400702,10.207461
26.83,-0.283518,-0.022032,9.879957
26.84,-0.235896,0.262634,9.841917
26.85,-0.398138,0.275962,10.346154
26.86,-0.122897,0.237137,10.204552
26.87,-0.242644,0.424844,10.100076
26.88,-0.265218,0.13938,10.017285
26.89,-0.04829,0.216709,10.474011
26.9,-0.458063,0.241309,10.200696
26.91,-0.547577,0.159834,10.252479
26.92,-0.182475,-0.024072,10.30501
26.93,-0.272905,0.430885,10.234451
26.94,-0.403808,0.077552,10.076202
26.95,-0.199229,0.071269,10.11915
26.96,-0.16159,-0.160276,10.270579
26.97,-0.074847,0.174547,10.312716
26.98,-0.362419,0.181256,10.341936
26.99,-0.248222,0.331996,10.006556
27.0,-0.131467,0.075781,10.18134
27.01,0.000777,0.157921,10.001646
27.02,-0.017842,0.257447,10.12319
27.03,-0.216804,0.301644,10.096901
27.04,-0.053253,0.13715,10.139284
27.05,-0.197234,0.015027,10.304729
27.06,-0.168826,0.234469,9.983159
27.07,-0.141254,0.224429,10.486907
27.08,-0.178267,-0.233829,10.356063
27.09,0.041115,0.064407,9.838153
27.1,0.083412,0.144574,10.181162
27.11,-0.103255,0.091997,9.913128
27.12,-0.004035,-0.070896,10.182122
27.13,-0.074632,-0.116233,9.858164
27.14,-0.144364,0.148495,10.320051
27.15,-0.154178,-0.035018,10.325002
27.16,0.284843,-0.112708,10.019889
27.17,-0.075858,-0.119487,10.13211
27.18,0.144061,-0.111361,9.867664
27.19,0.120281,-0.146249,9.993123
27.2,-0.104072,0.037066,10.059707
27.21,0.150915,-0.081723,9.802088
27.22,0.144129,-0.103031,10.374071
27.23,0.108573,-0.199235,10.100434
27.24,0.058937,-0.092586,10.295592
27.25,0.135792,-0.32426,10.03443
27.26,0.218753,-0.171157,9.936736
27.27,0.029983,-0.449915,10.075797
27.28,0.38575,-0.251059,10.224553
27.29,0.283951,-0.298878,9.926814
27.3,-0.169592,-0.23142,10.089896
27.31,0.167583,-0.294919,9.932579
27.32,0.530235,-0.159876,9.649406
27.33,0.273604,-0.343755,9.963709
27.34,0.120004,-0.114401,10.04668
27.35,0.332996,-0.013972,10.018665
27.36,-0.072821,-0.411261,9.961571
27.37,0.292616,-0.156943,10.024223
27.38,0.183958,-0.290247,9.885746
27.39,0.272002,-0.109235,10.085767
27.4,0.071926,-0.410465,9.910344
27.41,0.212239,-0.064484,10.132346
27.42,-0.110108,-0.298491,9.729458
27.43,0.193071,-0.271711,9.988673
27.44,0.307787,-0.266848,10.055434
27.45,0.459843,-0.396268,10.185833
27.46,0.66502,-0.104268,9.858975
27.47,0.174542,-0.30521,10.159624
27.48,0.374698,-0.133724,10.021371
27.49,0.249318,-0.238808,10.247528
27.5,0.255126,-0.222871,9.665598
27.51,0.313039,-0.031365,9.966396
27.52,0.275043,-0.397,9.910928
27.53,0.577492,-0.50545,9.940422
27.54,0.250613,-0.255881,10.061634
27.55,0.121233,-0.153614,10.149244
27.56,0.317147,-0.163724,9.951179
27.57,0.124791,-0.228325,9.596482
27.58,0.226291,0.149427,9.810907
27.59,0.435771,0.099689,10.440656
27.6,0.23422,-0.474934,9.694321
27.61,0.343632,-0.162513,9.891946
27.62,0.227763,0.010098,9.984119
27.63,0.291437,0.015003,10.025958
27.64,0.140446,-0.141123,9.731229
27.65,0.358752,0.1931,10.093146
27.66,0.031059,-0.128581,10.04655
27.67,0.099863,0.018387,9.898992
27.68,0.223001,0.025085,9.648647
27.69,0.324903,0.086987,9.705867
27.7,0.222953,-0.022025,9.680504
27.71,0.257756,0.150601,9.749323
27.72,-0.012578,-0.034401,10.03407
27.73,0.111722,0.154165,9.832269
27.74,0.183605,0.03066,9.884721
27.75,0.144582,0.338081,9.7946
27.76,-0.037914,0.104033,10.034091
27.77,-0.014281,0.178387,9.471716
27.78,0.080124,0.326397,9.066968
27.79,0.199301,0.205576,9.73094
27.8,0.389637,0.304224,9.728959
27.81,-0.101801,0.012264,9.717183
27.82,0.056357,0.284569,9.59424
27.83,-0.117174,0.179706,9.477066
27.84,0.018972,0.345607,9.686338
27.85,-0.048347,0.296168,9.632993
27.86,0.057476,0.308349,9.735268
27.87,-0.315155,0.34027,9.811106
27.88,-0.07996,0.393566,9.891653
27.89,-0.026923,-0.066329,9.822876
27.9,-0.025506,0.129543,9.664453
27.91,-0.019889,0.245445,9.744708
27.92,-0.058153,0.073239,9.445779
27.93,0.094051,0.214188,9.500135
27.94,0.09256,0.279499,9.952709
27.95,-0.150516,0.485947,9.827242
27.96,-0.209214,0.355512,9.370555
27.97,-0.112769,0.352568,9.502707
27.98,-0.033175,0.248894,9.955967
27.99,-0.159274,-0.022391,9.478766
28.0,-0.339637,0.123243,9.279305
28.01,-0.04294,-0.018528,9.514372
28.02,-0.137722,0.304094,9.513615
28.03,0.057085,0.227654,9.80284
28.04,-0.328246,0.236353,9.747714
28.05,-0.189377,0.271727,9.50358
28.06,-0.168626,0.117325,9.574425
28.07,-0.275132,-0.0178,9.634333
28.08,-0.391314,0.102095,9.707764
28.09,-0.214096,0.224983,9.505799
28.1,-0.327343,-0.111424,9.620959
28.11,-0.264827,0.163422,9.82117
28.12,-0.268363,-0.059004,9.533021
28.13,-0.438266,0.197431,9.579871
28.14,-0.349258,-0.095583,9.660084
28.15,-0.349447,0.200341,9.443242
28.16,-0.281422,-0.140411,9.382542
28.17,-0.22308,-0.086895,9.608504
28.18,-0.248399,0.14317,9.638206
28.19,-0.16759,0.001235,9.514783
28.2,-0.275922,-0.281507,9.410991
28.21,-0.000314,0.105409,9.437976
28.22,-0.241356,-0.332314,9.564959
28.23,-0.499298,-0.05552,9.302721
28.24,-0.356237,0.268267,9.69944
28.25,0.182773,-0.044475,9.789346
28.26,-0.494971,-0.122631,9.234233
28.27,-0.219294,-0.094633,9.601277
28.28,0.051344,-0.260816,9.640926
28.29,-0.467387,-0.083971,9.65236
28.3,-0.040703,0.202933,9.195002
28.31,-0.035818,-0.198298,9.431379
28.32,-0.307817,-0.267872,9.384754
28.33,-0.541914,-0.086312,9.440734
28.34,-0.161003,-0.056456,9.259958
28.35,-0.258339,-0.162761,9.790547
28.36,-0.26534,-0.23432,9.556361
28.37,-0.128449,-0.11371,9.292826
28.38,-0.218708,-0.42531,9.374657
28.39,-0.449261,-0.286358,9.724421
28.4,-0.219403,-0.566882,9.452398
28.41,-0.137811,-0.242608,9.699137
28.42,-0.108073,-0.264129,9.589138
28.43,0.020171,-0.07933,9.221856
28.44,-0.451756,-0.36919,9.286931
28.45,0.001976,-0.08868,9.252789
28.46,-0.195439,-0.278459,9.547004
28.47,-0.098355,-0.152881,9.805392
28.48,0.015941,-0.134024,9.49272
28.49,-0.216087,-0.242787,9.441668
28.5,-0.147274,-0.208176,9.557212
28.51,0.007455,-0.334285,9.446655
28.52,-0.153129,-0.065941,9.399368
28.53,-0.001783,0.161416,9.494768
28.54,-0.200009,-0.45771,9.596752
28.55,0.156164,-0.224226,9.368559
28.56,0.100661,-0.272484,9.280723
28.57,-0.113828,-0.15619,9.631551
28.58,0.177558,-0.458252,9.062127
28.59,0.090366,-0.367305,9.224019
28.6,-0.102961,0.05796,9.464678
28.61,0.156119,0.027448,9.623777
28.62,0.172977,-0.423099,9.501393
28.63,-0.158928,0.122741,9.363019
28.64,-0.273163,-0.273988,9.612806
28.65,0.043129,-0.025899,9.327527
28.66,0.005428,-0.156298,9.590125
28.67,0.223435,-0.088703,9.390731
28.68,0.040048,-0.092069,9.259271
28.69,0.061223,0.042265,9.603791
28.7,0.434799,-0.163435,9.761839
28.71,0.36287,0.20701,9.407873
28.72,-0.043834,0.10736,9.661064
28.73,0.397678,-0.098331,9.127631
28.74,0.44045,-0.023854,9.240491
28.75,0.194031,0.002413,9.311675
28.76,0.165493,-0.062618,9.460364
28.77,-0.050626,-0.037981,9.578464
28.78,0.039706,0.14708,9.27479
28.79,0.232462,0.129314,9.329074
28.8,0.18582,-0.026154,9.646195
28.81,0.211824,0.078556,9.34993
28.82,0.323283,-0.069541,9.754122
28.83,0.541842,0.350149,9.377274
28.84,0.192291,0.221696,9.720841
28.85,0.197295,0.10614,9.661888
28.86,0.26971,0.157287,9.53399
28.87,0.254107,0.264639,9.562605
28.88,0.55065,0.073633,9.550187
28.89,0.269514,0.162984,9.734981
28.9,0.437486,0.280055,9.142969
28.91,0.690556,0.003575,9.478883
28.92,0.563656,0.276025,9.578409
28.93,0.276052,0.576548,9.766005
28.94,0.232935,-0.037611,9.450449
28.95,0.15856,0.353943,9.182241
28.96,0.316074,0.040123,9.109677
28.97,0.06176,0.022469,9.580594
28.98,0.63162,0.1758,9.336048
28.99,0.210647,0.318781,9.535411
29.0,0.294517,0.328087,9.35274
29.01,0.325213,0.228334,9.523054
29.02,0.099621,0.087708,9.944768
29.03,0.42427,0.228126,9.826945
29.04,0.339245,-0.02199,9.60074
29.05,0.220765,0.376228,9.559388
29.06,0.311998,0.190168,9.454026
29.07,0.235058,0.413149,9.720731
29.08,0.237579,0.098652,9.561306
29.09,0.13093,0.321891,9.873964
29.1,0.240614,-0.02832,9.658032
29.11,0.276436,0.43456,9.671343
29.12,0.079941,0.292706,9.347827
29.13,0.236746,0.165943,9.55171
29.14,-0.10585,0.147781,9.996625
29.15,0.358813,0.158309,9.389386
29.16,-0.022143,0.196872,9.627334
29.17,-0.108577,-0.050915,9.637465
29.18,0.063303,0.128927,9.730375
29.19,0.160992,0.121814,9.760158
29.2,0.070317,0.310319,9.598111
29.21,0.224625,0.068298,9.858145
29.22,0.054571,-0.019827,9.595838
29.23,0.047958,0.112365,9.817733
29.24,0.045608,0.197799,9.440904
29.25,0.309687,0.111396,9.587634
29.26,-0.021136,0.092846,9.459337
29.27,0.40542,0.077595,9.787019
29.28,0.313451,0.033007,9.800956
29.29,-0.174945,-0.040867,9.678734
29.3,0.129189,-0.0887,9.805716
29.31,-0.115323,0.019177,9.550778
29.32,-0.013687,0.049653,9.993224
29.33,-0.288712,-0.003347,9.938611
29.34,-0.074144,-0.29703,9.614759
29.35,0.344626,0.098084,9.575107
29.36,-0.202795,-0.261259,9.70878
29.37,0.016511,-0.266946,9.845212
29.38,-0.088016,-0.239347,9.831898
29.39,-0.198037,-0.159864,9.626369
29.4,0.052475,-0.125347,9.747338
29.41,-0.210057,0.02561,9.889974
29.42,-0.157856,0.015716,9.764489
29.43,-0.127224,-0.405592,9.862226
29.44,0.00967,-0.425421,10.028915
29.45,-0.241803,-0.006209,9.744801
29.46,0.146096,-0.203794,10.025525
29.47,-0.471342,-0.34119,9.863446
29.48,-0.301344,-0.108595,9.855391
29.49,-0.034278,-0.035678,9.641323
29.5,-0.313159,-0.149827,10.032261
29.51,-0.209608,-0.335391,10.252679
29.52,-0.386977,-0.549293,9.719814
29.53,-0.462144,-0.153621,9.745609
29.54,-0.332685,-0.255274,10.200048
29.55,-0.147367,-0.366596,10.043991
29.56,-0.356276,-0.479144,9.812553
29.57,-0.283664,-0.213337,10.244455
29.58,-0.349316,-0.331338,9.866155
29.59,-0.175238,-0.224952,9.959923
29.6,-0.520532,-0.113394,10.021699
29.61,-0.299221,-0.351598,10.103802
29.62,-0.336305,0.069655,10.052167
29.63,-0.421555,-0.262725,10.350089
29.64,-0.102989,-0.130106,10.231456
29.65,-0.545578,-0.318739,10.272692
29.66,-0.230274,-0.147476,9.876535
29.67,-0.215263,-0.365152,10.059476
29.68,-0.340525,-0.125545,10.30991
29.69,0.012769,0.156288,9.940679
29.7,-0.211446,-0.373042,9.947451
29.71,-0.380238,-0.550899,10.188765
29.72,-0.17628,-0.284785,10.112235
29.73,-0.334577,-0.139394,10.029686
29.74,-0.319396,-0.1606,10.087281
29.75,-0.083878,-0.226963,9.71524
29.76,-0.165296,0.008434,9.987686
29.77,-0.078749,-0.209221,9.899864
29.78,-0.605177,0.002657,10.346181
29.79,-0.17109,-0.173764,10.030023
29.8,0.011868,-0.238978,10.081837
29.81,-0.375297,-0.073679,10.269333
29.82,-0.172117,-0.052621,10.354795
29.83,-0.221815,0.215158,10.127684
29.84,-0.070218,0.013421,9.930545
29.85,-0.249523,0.004843,9.989112
29.86,-0.0378,-0.005563,10.144776
29.87,-0.189234,-0.093195,10.153855
29.88,0.273132,-0.031249,9.953793
29.89,-0.068291,-0.059195,9.732146
29.9,0.232499,0.053436,9.814789
29.91,-0.001501,-0.182943,9.896625
29.92,-0.143323,-0.198542,10.073978
29.93,-0.067624,-0.038319,10.059453
29.94,-0.003021,-0.041864,9.820441
29.95,-0.392632,0.14484,10.078867
29.96,0.108899,0.027835,10.425714
29.97,0.003007,0.20517,10.192629
29.98,0.07261,0.041451,10.491527
29.99,0.096674,0.478573,10.13464
30.0,-0.177079,0.119924,10.131567
30.01,0.043304,0.229485,10.189449
30.02,0.044362,0.083734,10.468498
30.03,-0.130383,0.125605,10.42596
30.04,0.287034,0.26194,10.281321
30.05,0.363102,0.207334,10.223655
30.06,0.036828,0.324227,9.994022
30.07,0.183987,0.374402,9.90857
30.08,0.110724,0.537052,10.071116
30.09,0.07748,0.341293,10.428564
30.1,0.076362,0.243802,10.475717
30.11,-0.034252,0.180593,9.865693
30.12,0.220827,0.13994,10.399264
30.13,0.08164,0.185726,10.486107
30.14,0.277887,0.281457,10.382746
30.15,0.130853,0.424785,10.077069
30.16,0.03119,0.304863,10.306983
30.17,0.113984,0.206022,9.882022
30.18,0.279249,0.067249,9.907474
30.19,0.182437,0.12683,10.610204
30.2,0.103933,0.273805,10.078281
30.21,0.491765,0.321173,9.95506
30.22,0.054263,0.374417,10.095964
30.23,0.460685,0.368736,10.495538
30.24,0.440914,0.069347,10.368836
30.25,0.410851,0.109631,10.039107
30.26,0.398414,0.334232,10.146302
30.27,0.173286,0.354116,10.247218
30.28,0.210859,0.187638,10.278867
30.29,0.586397,0.41961,10.247947
30.3,0.460066,0.34137,9.984839
30.31,0.379941,0.260064,10.112914
30.32,0.222167,0.199633,9.953832
30.33,0.17665,-0.119865,10.323533
30.34,0.136747,-0.016,10.132906
30.35,0.207739,0.097404,10.208778
30.36,0.272004,0.341022,10.02658
30.37,0.337051,0.284399,10.259616
30.38,0.491578,-0.033382,10.263602
30.39,0.6302,0.204332,9.883465
30.4,0.533264,-0.089261,10.280508
30.41,0.115421,-0.362153,9.926974
30.42,0.187822,0.305978,10.009898
30.43,0.1546,-0.331771,10.29537
30.44,0.458512,-0.438607,10.010056
30.45,0.40803,0.011154,10.145626
30.46,0.211899,-0.087427,10.104704
30.47,0.263855,-0.001302,9.859258
30.48,0.307898,0.210939,10.369433
30.49,0.35081,0.064539,10.368367
30.5,0.447381,-0.011332,10.191662
30.51,0.284413,-0.238131,10.050709
30.52,0.21386,-0.194808,10.118328
30.53,0.297972,-0.045021,10.338216
30.54,0.195562,-0.208575,10.000101
30.55,0.277388,-0.034935,10.012543
30.56,0.179368,-0.132328,10.045606
30.57,0.375665,-0.205633,9.688647
30.58,0.377715,-0.017525,10.203056
30.59,0.145281,-0.231604,10.108102
30.6,0.475136,-0.408638,10.218292
30.61,0.182119,-0.025241,9.979631
30.62,0.202784,-0.217604,9.799196
30.63,0.343069,-0.258849,10.079825
30.64,0.418394,-0.249596,9.84103
30.65,0.27897,-0.321559,10.148439
30.66,0.138914,0.152214,10.158771
30.67,0.01985,-0.438337,10.420674
30.68,0.11101,-0.192486,10.283441
30.69,0.140383,-0.217507,10.074523
30.7,0.099881,-0.129058,9.974133
30.71,-0.010175,-0.303335,10.173641
30.72,-0.102939,-0.063634,10.063946
30.73,0.027391,-0.298312,9.91913
30.74,-0.115987,-0.320245,9.626471
30.75,-0.283376,-0.2307,10.406294
30.76,-0.178446,-0.18765,10.179053
30.77,-0.126392,-0.071363,10.096922
30.78,-0.190724,-0.424528,9.9859
30.79,-0.05339,-0.086438,10.311099
30.8,-0.288666,-0.069929,10.1232
30.81,-0.285043,-0.100462,9.706501
30.82,0.063809,-0.21228,9.904988
30.83,0.002885,-0.266905,10.080999
30.84,-0.102895,-0.109994,10.156042
30.85,0.049747,-0.140018,9.879743
30.86,-0.278358,-0.386862,10.201252
30.87,-0.071516,-0.017006,9.680528
30.88,-0.221476,-0.243808,9.867059
30.89,0.020339,-0.226732,9.868231
30.9,-0.177644,0.042663,10.071799
30.91,-0.35363,-0.079774,10.129018
30.92,-0.025399,-0.116542,10.118216
30.93,-0.297572,-0.134263,9.631082
30.94,-0.422361,-0.101331,9.900655
30.95,-0.024293,-0.055994,9.592472
30.96,-0.163564,0.20951,9.868663
30.97,-0.395149,-0.313025,10.15519
30.98,-0.286513,0.367386,10.213194
30.99,-0.295749,0.355606,9.928594
31.0,-0.414325,-0.035994,9.887956
31.01,-0.412754,0.060465,9.797927
31.02,-0.302249,0.074057,9.818567
31.03,-0.14259,0.220477,10.077685
31.04,-0.167046,0.094538,9.65326
31.05,-0.376214,0.144716,9.753899
31.06,-0.169762,0.277859,9.798484
31.07,-0.071518,-0.17732,9.66081
31.08,-0.423641,0.10205,9.872341
31.09,-0.18396,0.172286,10.05357
31.1,-0.290557,0.100696,9.881232
31.11,-0.331732,-0.094618,9.63446
31.12,-0.285923,0.177536,9.618747
31.13,-0.163465,0.099306,9.517883
31.14,-0.470906,0.126405,9.719853
31.15,-0.277243,0.198065,9.583082
31.16,-0.327583,-0.04581,9.770009
31.17,-0.264251,0.171837,9.593543
31.18,-0.28937,0.12016,9.459943
31.19,-0.367998,0.035768,9.35764
31.2,0.034356,0.309138,9.812959
31.21,-0.633769,0.045966,9.443444
31.22,-0.14781,0.324879,9.776708
31.23,-0.138354,0.377487,9.564026
31.24,-0.20468,0.231179,9.722168
31.25,-0.165627,0.413925,9.660319
31.26,-0.102389,0.598014,9.689616
31.27,-0.266771,0.336188,9.828836
31.28,-0.232375,0.203489,9.523591
31.29,-0.214206,0.425152,9.913017
31.3,-0.084138,-0.045249,9.776898
31.31,-0.067284,0.593594,9.572931
31.32,-0.290202,0.253305,9.586127
31.33,-0.129759,0.276204,9.64291
31.34,-0.200102,-0.006025,9.539801
31.35,-0.236135,0.359161,9.298015
31.36,-0.153839,0.233463,9.429245
31.37,-0.237909,0.187365,9.423329
31.38,-0.327756,0.105789,9.559608
31.39,-0.031616,0.057467,9.370687
31.4,0.110033,0.070234,9.73418
31.41,-0.064237,-0.07276,9.60298
31.42,0.133515,0.190497,9.500084
31.43,0.123962,0.386975,9.422552
31.44,-0.109011,0.196708,9.568791
31.45,-0.089298,0.002334,9.72955
31.46,-0.167514,0.162071,9.217291
31.47,0.095969,-0.297753,9.281184
31.48,0.14975,0.342773,9.361307
31.49,0.085086,-0.010278,9.306338
31.5,-0.01777,0.137036,9.2775
31.51,0.098492,0.037799,9.535788
31.52,0.226521,0.119449,9.523281
31.53,0.223127,0.367818,9.458102
31.54,0.223161,-0.316825,9.558485
31.55,0.204599,0.028696,9.50437
31.56,0.340253,0.018642,9.378408
31.57,0.032524,-0.094922,9.433708
31.58,0.098718,-0.163284,9.546954
31.59,0.059368,0.077486,9.286049
31.6,0.148403,-0.084622,9.555009
31.61,0.438251,-0.092699,8.92054
31.62,0.113588,-0.150789,9.489904
31.63,0.124774,-0.142083,9.550176
31.64,-0.011561,-0.038917,9.316276
31.65,0.346838,-0.057092,9.67924
31.66,0.252817,-0.27028,9.691228
31.67,0.472856,-0.210095,9.520554
31.68,0.47999,-0.022235,9.772084
31.69,0.108291,0.067521,9.334217
31.7,0.269993,0.058463,9.634823
31.71,0.475359,0.038221,9.728625
31.72,0.178609,-0.18076,9.267121
31.73,0.439713,-0.062578,9.484825
31.74,-0.077881,-0.169418,9.203285
31.75,0.288552,-0.34108,9.618278
31.76,0.205187,-0.253793,9.766606
31.77,0.459896,-0.270634,9.366954
31.78,0.244194,-0.104609,9.458194
31.79,0.429041,-0.121352,9.371267
31.8,0.412338,-0.227922,9.911114
31.81,0.35529,-0.101637,9.298224
31.82,1.099745,0.36732,9.296962
31.83,2.436981,1.917364,9.561078
31.84,5.007554,5.052017,9.444378
31.85,9.599381,9.735057,9.912261
31.86,13.646572,14.22458,9.817486
31.87,15.571212,16.014699,9.57098
31.88,13.745863,14.142396,9.627843
31.89,9.65365,9.684921,9.592053
31.9,5.347847,5.167137,9.648993
31.91,2.199949,1.922821,9.555631
31.92,0.84187,0.288208,9.280375
31.93,0.374137,-0.188855,9.314639
31.94,0.428148,-0.111467,9.638405
31.95,0.170928,-0.110882,9.37438
31.96,0.265508,-0.264349,9.707352
31.97,0.343627,-0.31453,9.597802
31.98,0.205166,-0.365829,9.254824
31.99,0.447615,-0.347271,9.263337
32.0,0.095914,-0.190031,9.236461
32.01,0.247169,-0.355784,9.614569
32.02,0.21437,-0.083057,9.684647
32.03,0.162516,-0.017578,9.407019
32.04,-0.188347,-0.285775,9.478389
32.05,0.078422,-0.22281,9.539045
32.06,-0.153957,-0.06785,9.641361
32.07,0.020444,-0.161653,9.42337
32.08,0.070881,0.002658,9.566843
32.09,0.414773,0.135648,9.47828
32.1,0.16964,-0.028596,9.213499
32.11,-0.11119,-0.23913,9.743398
32.12,0.06021,0.055509,9.557055
32.13,0.080248,-0.006544,9.468931
32.14,0.018892,0.137976,9.370197
32.15,-0.006653,0.420597,9.382386
32.16,-0.105759,-0.058602,9.252998
32.17,0.018414,-0.011485,9.314599
32.18,-0.009587,0.15431,9.351709
32.19,0.040168,0.253439,9.424309
32.2,0.051293,0.441807,9.766103
32.21,0.033698,0.084209,9.63945
32.22,-0.083762,0.027999,9.370662
32.23,-0.136488,0.050362,9.25342
32.24,-0.013083,0.113663,9.379417
32.25,-0.259488,0.15188,9.809085
32.26,-0.518729,0.223376,9.672832
32.27,-0.419781,0.210939,9.5254
32.28,-0.451329,0.022072,9.559428
32.29,-0.096529,-0.008905,9.773331
32.3,-0.171333,0.210877,9.567985
32.31,-0.083089,0.118277,9.984688
32.32,-0.133163,0.148101,9.596601
32.33,-0.064304,0.373628,9.419175
32.34,-0.05919,0.343193,9.228321
32.35,-0.095253,0.192446,9.676724
32.36,-0.099916,0.401451,9.564736
32.37,-0.006549,0.412404,9.439107
32.38,0.053132,0.454985,9.737757
32.39,-0.254359,0.482869,9.667351
32.4,-0.040944,0.216957,9.541584
32.41,-0.364254,0.411812,9.68497
32.42,-0.360831,0.196536,9.61089
32.43,-0.03717,0.42059,9.807723
32.44,-0.27434,0.198361,9.663461
32.45,-0.542623,0.231384,9.584228
32.46,-0.475126,0.071955,9.883198
32.47,-0.413338,0.063649,9.472586
32.48,-0.475084,0.269269,9.417559
32.49,-0.219346,0.345438,9.569356
32.5,-0.429492,0.036028,9.361931
32.51,-0.341649,0.380661,9.412764
32.52,-0.389919,0.353838,9.652589
32.53,-0.502194,0.220924,9.712552
32.54,-0.4929,0.292694,9.660588
32.55,-0.156057,0.059852,9.805085
32.56,-0.24058,-0.086207,9.636619
32.57,-0.765578,0.035884,9.385522
32.58,-0.376845,0.279951,9.868041
32.59,-0.142888,0.277994,9.725143
32.6,-0.18672,-0.102319,9.872035
32.61,0.053208,-0.118159,9.865641
32.62,-0.297839,-0.085895,9.954383
32.63,-0.195947,-0.256925,9.606581
32.64,-0.377354,-0.071829,9.558815
32.65,-0.469037,0.077894,9.762992
32.66,-0.174058,-0.459314,9.758868
32.67,-0.278913,-0.033969,10.017007
32.68,0.189011,0.175878,9.891003
32.69,-0.289432,0.086124,9.832231
32.7,-0.254381,-0.004647,9.593567
32.71,-0.168723,-0.061655,9.691762
32.72,-0.029095,0.078853,9.534661
32.73,-0.030763,-0.028527,9.68477
32.74,-0.396941,-0.157961,9.871527
32.75,0.059883,0.011195,9.926335
32.76,-0.148816,-0.34571,9.967206
32.77,-0.513988,-0.033495,9.99592
32.78,-0.09945,-0.081253,9.967266
32.79,-0.24006,-0.143816,9.763103
32.8,0.102881,-0.169666,9.740286
32.81,-0.010021,0.059312,10.118199
32.82,0.112595,-0.039251,9.820447
32.83,0.143359,-0.003831,9.834927
32.84,-0.091125,-0.143917,9.882345
32.85,0.028044,-0.051455,9.641328
32.86,0.174275,-0.162234,9.883102
32.87,0.05033,-0.256294,9.640883
32.88,-0.093438,-0.120917,10.041773
32.89,0.259861,-0.282742,9.855141
32.9,0.06,-0.068959,9.836023
32.91,-0.048972,-0.429425,9.6017
32.92,0.36922,-0.28628,10.010765
32.93,-0.191297,-0.351425,10.389829
32.94,0.00693,0.101302,9.862032
32.95,0.033091,-0.345839,9.962138
32.96,0.262767,-0.254407,10.26088
32.97,0.090299,-0.552828,10.409017
32.98,0.051592,0.017031,9.770527
32.99,0.322017,-0.357367,10.211781
33.0,0.293581,-0.005423,9.499812
33.01,0.143689,-0.381618,9.438132
33.02,0.231973,-0.364734,9.688416
33.03,0.037646,-0.08692,9.948949
33.04,0.181741,-0.435774,9.661527
33.05,0.214521,-0.13088,10.262036
33.06,0.039317,-0.30056,10.038915
33.07,-0.006439,0.14713,10.147911
33.08,0.189374,0.10442,9.979064
33.09,0.414582,0.034663,9.939686
33.1,0.349925,0.205504,10.036065
33.11,0.179074,-0.225353,10.406547
33.12,0.663712,-0.002996,10.09648
33.13,0.118816,-0.249257,10.094248
33.14,0.366599,0.036634,9.880154
33.15,0.208767,-0.030208,9.893358
33.16,0.473553,-0.252956,9.956268
33.17,0.277267,-0.062936,10.193201
33.18,0.260757,-0.025888,10.145155
33.19,0.442865,-0.016591,9.734818
33.2,0.274616,0.256419,10.175021
33.21,0.410751,-0.158556,10.227711
33.22,0.283459,-0.086046,10.208025
33.23,-0.094708,-0.415833,10.208129
33.24,0.621488,0.144291,10.216173
33.25,0.37406,0.179778,10.178429
33.26,0.247635,0.202748,9.875333
33.27,0.495679,0.07827,10.292983
33.28,0.142519,-0.013629,10.431803
33.29,0.146821,-0.06923,10.352676
33.3,0.066729,0.207065,10.176963
33.31,0.243758,0.010869,10.117032
33.32,0.16895,-0.104819,10.019976
33.33,0.218419,0.313111,9.79807
33.34,0.034891,0.113348,10.311822
33.35,0.145227,0.203796,9.87318
33.36,0.308757,-0.320587,10.077593
33.37,0.437189,0.19061,10.075729
33.38,0.230478,0.170006,10.372232
33.39,0.140087,0.492015,10.267464
33.4,0.299861,0.183023,10.03892
33.41,0.372169,-0.228064,10.13067
33.42,0.353771,0.19607,10.115056
33.43,0.251527,0.23807,10.266091
33.44,0.050855,0.438406,9.97306
33.45,0.144441,0.237143,10.209017
33.46,0.177602,0.180468,10.120416
33.47,-0.238695,0.226115,10.598824
33.48,0.12153,0.691792,10.016334
33.49,0.36385,0.328604,10.379355
33.5,-0.003272,0.204004,10.083285
33.51,-0.192188,0.405949,10.143496
33.52,-0.032592,0.066637,10.404135
33.53,-0.050896,0.124241,10.258993
33.54,0.206611,0.152549,10.140289
33.55,0.423286,-0.045225,10.096494
33.56,0.038434,0.384799,10.410221
33.57,-0.126006,0.097768,10.095117
33.58,-0.192864,0.236094,10.094227
33.59,0.130201,0.118261,10.035752
33.6,0.070931,0.252631,10.482786
33.61,0.125093,0.495418,9.930071
33.62,-0.142858,0.125827,10.206878
33.63,0.16829,0.095884,10.214314
33.64,-0.062971,-0.039248,9.93703
33.65,-0.208556,0.10489,10.102514
33.66,-0.421862,-0.164649,10.082707
33.67,-0.20313,0.360115,10.039315
33.68,-0.2167,0.010395,10.165315
33.69,-0.310097,-0.049506,10.200691
33.7,-0.093664,0.059568,10.090544
33.71,-0.275616,0.179326,10.501527
33.72,-0.325117,0.021784,10.019532
33.73,-0.330235,0.227218,10.182304
33.74,-0.415484,-0.038392,10.154979
33.75,-0.29779,-0.10618,10.240178
33.76,-0.303051,-0.003378,10.165982
33.77,-0.26668,-0.033788,9.974353
33.78,-0.18089,0.126352,10.23935
33.79,-0.016339,0.095056,10.122747
33.8,-0.10175,-0.125882,10.292527
33.81,-0.49465,-0.31629,10.253927
33.82,-0.132407,0.017783,10.217793
33.83,-0.109828,-0.287674,10.273925
33.84,-0.163876,-0.1204,10.000681
33.85,-0.349998,-0.035661,10.115445
33.86,-0.066792,0.165382,10.295062
33.87,-0.42478,0.212406,10.133453
33.88,-0.133165,-0.084974,9.948565
33.89,-0.14021,-0.482445,9.896151
33.9,-0.222714,-0.353809,10.217859
33.91,-0.568708,-0.209259,9.974912
33.92,-0.269473,-0.249719,10.06063
33.93,-0.175119,-0.182803,10.319121
33.94,-0.292391,-0.188184,9.909555
33.95,-0.310997,-0.408432,10.269316
33.96,-0.353236,-0.126729,9.871206
33.97,-0.374116,-0.376761,10.262276
33.98,-0.306636,-0.208892,10.072399
33.99,-0.109369,0.052448,9.729129
34.0,-0.390822,-0.402538,9.812368
34.01,-0.222095,-0.221921,9.871651
34.02,-0.67949,-0.312132,10.045158
34.03,-0.349457,-0.41102,10.218419
34.04,-0.157646,-0.230711,10.080465
34.05,-0.107388,-0.373231,9.850005
34.06,-0.418151,-0.122852,10.259672
34.07,-0.201342,-0.144996,9.982785
34.08,-0.119065,0.02417,9.823569
34.09,-0.348978,-0.117525,9.96166
34.1,-0.470222,-0.13261,9.978526
34.11,-0.412603,-0.546606,9.817243
34.12,-0.440069,-0.082687,10.136286
34.13,-0.084427,-0.098048,9.893912
34.14,-0.165381,-0.329281,9.803792
34.15,-0.234609,0.075915,10.056899
34.16,-0.292744,-0.050692,10.012218
34.17,0.017444,-0.153648,10.076497
34.18,-0.168127,-0.060324,10.066191
34.19,-0.076618,-0.094109,9.803461
34.2,-0.248848,-0.126948,9.895318
34.21,-0.276947,-0.175998,9.50511
34.22,0.064503,0.058495,9.92787
34.23,-0.062297,-0.344003,9.940305
34.24,-0.036391,-0.078261,9.854267
34.25,-0.000183,0.132863,9.711648
34.26,0.112323,-0.06496,10.067956
34.27,0.152001,0.052248,9.653457
34.28,-0.177219,-0.056175,10.135244
34.29,-0.035366,-0.197841,9.584724
34.3,-0.137792,0.11216,9.803954
34.31,0.056715,0.212286,9.434786
34.32,-0.01526,-0.086478,9.702391
34.33,0.009352,0.098695,9.875411
34.34,0.035392,0.072305,9.882013
34.35,0.040306,-0.015674,9.775409
34.36,0.47291,0.233279,9.721607
34.37,-0.183181,0.031851,10.230473
34.38,0.096241,-0.076363,9.784144
34.39,-0.093497,0.039111,10.302607
34.4,0.167512,0.083505,10.061836
34.41,-0.058135,0.017679,9.658811
34.42,0.155692,0.048595,9.685228
34.43,0.066504,-0.032813,10.057269
34.44,0.348185,0.108066,9.509217
34.45,-0.026281,0.192797,10.005391
34.46,0.00313,0.037467,9.726269
34.47,0.043963,0.019821,9.293319
34.48,0.280719,0.039478,9.529763
34.49,0.263976,0.180308,9.68416
34.5,0.196009,0.1314,9.628005
34.51,0.343835,-0.033191,9.585013
34.52,-0.085081,0.030441,9.44149
34.53,0.224724,0.213503,9.695515
34.54,0.264487,0.174391,9.970403
34.55,0.299482,0.222411,9.959918
34.56,0.287566,0.475788,9.900542
34.57,0.319936,0.281189,9.64521
34.58,0.353421,-0.036033,9.889874
34.59,0.581615,0.149415,9.381067
34.6,0.399637,0.297363,9.769669
34.61,0.068701,0.142995,9.939778
34.62,0.42211,0.094088,9.78086
34.63,0.274978,0.377091,9.349482
34.64,0.212108,0.17521,9.474572
34.65,0.08051,0.103632,9.512755
34.66,0.25286,0.100953,9.429866
34.67,0.325417,0.477131,9.559477
34.68,0.406362,0.047402,9.595153
34.69,0.126206,0.181608,9.566342
34.7,0.226018,0.183205,9.439917
34.71,0.210595,0.299916,9.796415
34.72,0.195377,0.066308,9.559037
34.73,0.047821,0.052485,9.330236
34.74,0.111576,0.290125,9.501309
34.75,0.219998,0.530567,9.475944
34.76,0.353239,0.062587,9.243805
34.77,0.217544,0.041089,9.497986
34.78,0.065583,0.497171,9.793407
34.79,0.198116,0.058154,9.512141
34.8,0.042952,0.051384,9.519723
34.81,0.332025,0.118451,9.647681
34.82,0.436166,0.139162,9.437112
34.83,0.216179,0.101604,9.343689
34.84,0.293235,0.195125,9.662276
34.85,0.07475,-0.172512,9.528304
34.86,0.205735,-0.011341,9.219474
34.87,0.150946,0.171836,9.597818
34.88,0.293648,-0.349966,9.577415
34.89,0.04333,-0.216954,9.20182
34.9,0.108165,0.072576,9.082659
34.91,-0.057319,-0.03506,9.389562
34.92,0.191608,-0.158313,9.963998
34.93,-0.012684,-0.027728,9.930731
34.94,0.021836,-0.022358,9.772522
34.95,-0.077318,-0.234664,9.361143
34.96,0.014922,-0.125563,9.344679
34.97,0.137557,-0.302845,9.257589
34.98,0.070466,0.034536,9.266199
34.99,0.195426,-0.384069,9.597762
35.0,-0.107563,-0.180438,9.796106
35.01,-0.021416,-0.052655,9.436044
35.02,0.136697,0.118594,9.380608
35.03,-0.189404,-0.21989,9.310737
35.04,0.118713,0.212726,9.436083
35.05,0.163808,-0.37128,9.318122
35.06,-0.193415,-0.080437,9.217863
35.07,0.563643,-0.089147,9.502401
35.08,1.022407,0.958749,9.323557
35.09,3.24217,2.652208,9.372447
35.1,8.381046,6.561976,9.46839
35.11,16.048063,12.937498,9.091982
35.12,23.377897,18.594751,9.187856
35.13,26.452089,20.980623,9.486353
35.14,23.231351,18.608506,9.252527
35.15,15.816476,12.895259,9.470037
35.16,8.727368,6.682864,9.328703
35.17,3.460514,2.59143,9.510697
35.18,1.10411,0.693493,9.172018
35.19,-0.073494,-0.367687,9.310657
35.2,-0.239363,0.234252,9.748714
35.21,-0.389985,-0.238805,9.526455
35.22,-0.329045,-0.088256,9.627213
35.23,-0.101708,-0.003069,9.462249
35.24,-0.333036,-0.382643,9.232304
35.25,-0.289538,-0.406473,9.32859
35.26,-0.380234,0.032223,9.344569
35.27,-0.169034,-0.321422,9.346022
35.28,-0.374329,-0.248446,9.699896
35.29,-0.102967,-0.294407,9.424407
35.3,-0.349061,-0.620126,9.215967
35.31,0.06989,-0.1937,9.345222
35.32,-0.116317,-0.15969,9.542268
35.33,-0.305721,0.023598,9.198014
35.34,-0.288894,-0.192962,9.668499
35.35,-0.094242,-0.20468,9.736158
35.36,-0.251099,-0.019108,9.324331
35.37,-0.20954,0.047631,9.573108
35.38,0.018633,-0.248702,9.650745
35.39,-0.265913,-0.357807,9.298862
35.4,-0.609849,0.288537,9.409407
35.41,-0.26604,0.202172,9.438107
35.42,-0.112703,-0.119185,9.557114
35.43,-0.237545,-0.054185,9.755444
35.44,-0.45401,0.003051,9.447817
35.45,-0.288097,-0.106086,9.223124
35.46,-0.047233,-0.051551,9.181972
35.47,-0.476589,0.03229,9.364787
35.48,-0.515357,-0.149138,9.454677
35.49,-0.375797,0.428797,9.724562
35.5,-0.07073,-0.162537,9.199628
35.51,-0.541864,-0.211746,9.482988
35.52,-0.208143,0.252131,9.785981
35.53,-0.142954,0.06893,9.59454
35.54,-0.207834,0.204153,9.303914
35.55,-0.420539,0.151721,9.561498
35.56,-0.168696,0.105362,9.524535
35.57,-0.341358,0.158285,9.761558
35.58,-0.145206,0.243357,9.671681
35.59,-0.289558,0.362611,9.594079
35.6,-0.094754,0.087024,9.648778
35.61,-0.140283,0.278958,9.559469
35.62,-0.310409,0.14584,9.418524
35.63,-0.02581,0.167151,9.690929
35.64,-0.118305,0.096042,9.44446
35.65,-0.035996,0.189035,9.635351
35.66,-0.041561,0.053013,9.701319
35.67,0.092208,0.069972,9.354844
35.68,0.04123,0.106672,9.545067
35.69,0.028644,-0.093786,9.870666
35.7,-0.304263,0.104107,9.836001
35.71,-0.071332,0.171393,9.678595
35.72,-0.388286,0.299939,9.573917
35.73,-0.204542,0.035645,9.56279
