time,ax,ay,az
0.00,0.089854,0.159315,9.781039
0.01,0.137121,0.071834,9.821923
0.02,0.049964,0.100784,9.949014
0.03,0.197664,0.155849,9.824786
0.04,-0.063244,0.165880,9.836970
0.05,0.100322,0.118179,9.857724
0.06,-0.033032,0.146561,9.947517
0.07,0.136260,0.147584,9.786051
0.08,0.103535,0.111975,9.685962
0.09,0.201479,0.071379,9.668847
0.10,0.100142,0.179399,9.896749
0.11,0.030569,0.143275,9.854677
0.12,0.026253,-0.046858,9.808747
0.13,0.048095,0.052990,9.777794
0.14,0.029740,0.079789,9.856507
0.15,0.180772,0.101090,9.861414
0.16,0.177372,0.212187,9.890441
0.17,-0.042177,0.370505,9.733604
0.18,0.082752,-0.084180,9.670050
0.19,0.086723,0.134848,9.757135
0.20,0.021162,0.113800,9.715379
0.21,0.120568,0.091304,9.712200
0.22,0.204117,0.146466,10.011464
0.23,0.160229,0.112085,9.629783
0.24,0.198180,0.068047,9.905444
0.25,0.034359,0.095958,9.951159
0.26,0.096070,0.134603,9.961187
0.27,0.033099,0.123266,9.892141
0.28,0.114593,0.097527,9.998382
0.29,0.122770,0.031675,10.046699
0.30,0.174060,0.299633,9.840099
0.31,0.203096,0.098457,9.917028
0.32,0.153761,0.126140,10.001814
0.33,0.030337,0.019830,9.789987
0.34,-0.008633,0.070803,9.853635
0.35,0.141414,0.065233,9.817480
0.36,0.220006,-0.107292,9.928092
0.37,0.098014,-0.016805,9.694110
0.38,-0.022281,-0.023505,10.029502
0.39,0.266485,-0.018026,9.941132
0.40,0.138531,-0.060936,9.948653
0.41,0.112627,0.022749,9.655228
0.42,0.004936,0.125578,9.789440
0.43,0.098991,0.018749,10.044388
0.44,0.151849,-0.091690,9.879480
0.45,0.136228,-0.085164,9.726687
0.46,0.040569,-0.038354,9.923122
0.47,0.089255,-0.126919,9.970734
0.48,0.043288,0.005234,9.957818
0.49,0.224339,0.083714,9.891471
0.50,0.161324,-0.075967,10.021903
0.51,0.046209,-0.029101,9.839973
0.52,-0.007005,-0.074732,9.966002
0.53,0.106911,-0.095923,9.927306
0.54,0.043372,-0.035429,9.902298
0.55,0.047346,-0.108596,9.879501
0.56,-0.012090,-0.125022,9.884826
0.57,-0.004363,-0.194586,9.924187
0.58,0.087295,-0.064431,9.893457
0.59,0.050573,0.011354,9.997795
0.60,0.269201,-0.021676,9.872638
0.61,0.114494,0.037010,10.084805
0.62,-0.027788,-0.140226,9.871640
0.63,-0.061187,-0.021934,10.023435
0.64,0.090761,-0.181754,10.029459
0.65,0.024331,-0.040151,9.951425
0.66,0.159704,0.031499,9.944205
0.67,0.072778,-0.063099,9.865313
0.68,-0.111391,0.027259,9.888173
0.69,-0.037417,-0.156080,9.963518
0.70,-0.013012,-0.121187,9.938676
0.71,0.073198,-0.185738,10.063136
0.72,-0.049606,-0.111499,9.900997
0.73,0.043577,-0.094266,9.908666
0.74,-0.078840,-0.115072,9.783206
0.75,0.025214,-0.156153,10.015626
0.76,0.050958,-0.158299,10.008179
0.77,0.134889,-0.091997,10.052137
0.78,0.034205,-0.132671,10.059333
0.79,-0.054207,-0.212137,10.036433
0.80,0.127132,-0.271588,10.042188
0.81,-0.010412,-0.167005,10.021608
0.82,0.062673,-0.229257,10.038524
0.83,-0.051699,-0.184581,9.779420
0.84,0.001142,-0.150412,9.855127
0.85,-0.073666,-0.126802,9.840263
0.86,0.012782,-0.166720,10.095065
0.87,0.047890,0.063770,9.891204
0.88,-0.059399,-0.210266,9.908653
0.89,-0.067270,-0.010262,9.973032
0.90,0.002009,-0.117401,9.849412
0.91,-0.095853,-0.154175,10.013236
0.92,-0.154567,-0.051530,9.763531
0.93,-0.008116,-0.131523,9.860196
0.94,-0.048184,-0.156405,9.999189
0.95,-0.053027,0.054974,9.856492
0.96,-0.004131,-0.259944,10.111903
0.97,0.004000,-0.099977,9.987942
0.98,-0.064726,-0.061012,10.097829
0.99,-0.144583,0.040755,10.021709
1.00,-0.108714,-0.099281,9.986005
1.01,-0.013619,0.150098,9.888810
1.02,-0.052221,0.002701,10.082634
1.03,-0.109756,-0.242534,10.035085
1.04,-0.131089,-0.164457,10.200650
1.05,-0.021394,-0.024117,10.076237
1.06,-0.090949,-0.129400,9.954854
1.07,-0.015309,0.011196,10.024720
1.08,-0.007399,-0.063600,10.039160
1.09,-0.104900,-0.117597,10.114397
1.10,-0.005932,-0.093649,10.131428
1.11,-0.072765,0.057138,9.984169
1.12,-0.064250,-0.167361,9.879926
1.13,-0.262502,0.083600,9.817191
1.14,-0.166702,0.091443,9.889701
1.15,-0.163884,-0.015542,9.945546
1.16,-0.117453,-0.095917,10.156209
1.17,-0.084115,0.066340,10.158763
1.18,-0.082034,-0.011651,10.103851
1.19,-0.072673,-0.088622,10.131883
1.20,-0.151292,0.190580,9.939096
1.21,-0.042036,-0.027723,9.859281
1.22,0.046665,-0.069651,9.911122
1.23,-0.126960,0.075915,9.809240
1.24,-0.152285,0.052561,9.902258
1.25,-0.154397,0.181640,9.963975
1.26,-0.092994,0.036928,10.032142
1.27,-0.142033,0.042255,10.029903
1.28,-0.238420,0.103001,9.948264
1.29,-0.216437,0.096315,10.074978
1.30,-0.018064,0.102759,9.951879
1.31,0.003200,0.109936,10.020751
1.32,0.029102,0.104989,9.909557
1.33,-0.080212,0.061947,10.130215
1.34,-0.176899,0.165125,10.024209
1.35,-0.131861,0.072757,10.090770
1.36,-0.215208,0.168722,9.902015
1.37,-0.217252,0.218000,10.041807
1.38,-0.073290,0.055156,10.082313
1.39,-0.049328,0.303868,9.821392
1.40,0.065593,0.056416,10.143272
1.41,-0.096243,0.058671,9.902187
1.42,-0.196634,0.159736,10.048872
1.43,-0.096068,0.153052,10.207188
1.44,-0.107115,0.124414,10.124529
1.45,-0.121919,0.184821,9.880650
1.46,-0.053125,0.140013,10.012429
1.47,-0.175691,0.285251,10.154148
1.48,-0.065890,0.115671,9.949685
1.49,-0.021945,0.051254,9.995916
1.50,0.041874,0.074910,9.993642
1.51,-0.044424,0.155936,10.089944
1.52,0.016730,0.156040,9.879735
1.53,-0.099618,0.132370,10.096523
1.54,-0.085760,0.046335,9.972095
1.55,0.049175,0.201191,10.033688
1.56,-0.165547,0.265425,10.012765
1.57,-0.085171,0.110539,10.095644
1.58,0.040319,0.250556,10.033963
1.59,-0.063823,0.172293,10.180494
1.60,-0.066703,0.277555,10.135762
1.61,-0.061950,0.134729,9.957639
1.62,-0.028171,0.104499,10.174037
1.63,0.052568,0.157420,10.069769
1.64,0.042885,0.051609,10.055122
1.65,-0.026834,0.114951,10.123244
1.66,0.062977,0.184751,9.934583
1.67,0.006294,0.139603,9.901012
1.68,0.051070,0.067158,10.041693
1.69,-0.096517,0.081113,9.978796
1.70,0.128265,0.121003,10.247010
1.71,0.010239,0.113526,9.963403
1.72,-0.223793,0.110641,10.044041
1.73,0.132289,0.072749,10.059379
1.74,0.003386,-0.025507,10.163460
1.75,-0.025206,-0.017978,9.941012
1.76,-0.038577,0.066831,9.879381
1.77,0.048470,0.091094,10.180136
1.78,-0.054345,0.075321,10.048834
1.79,-0.026030,-0.040303,10.121831
1.80,-0.020735,-0.003859,10.126586
1.81,0.003460,-0.091206,10.143961
1.82,-0.011065,-0.114081,10.003204
1.83,0.101653,-0.001747,9.976111
1.84,0.058349,0.094907,9.841379
1.85,0.071300,-0.011212,9.941499
1.86,0.091850,0.128043,10.047174
1.87,0.038648,-0.043096,9.970775
1.88,-0.032491,-0.032766,9.926766
1.89,0.196528,-0.119766,10.045824
1.90,0.129234,-0.073402,10.174988
1.91,0.186910,-0.145859,10.034990
1.92,0.143430,-0.179225,9.927192
1.93,0.026547,-0.154250,10.167586
1.94,-0.121827,-0.058284,9.962786
1.95,-0.029760,-0.128596,10.187975
1.96,0.121963,-0.114056,10.013551
1.97,0.065291,-0.045528,10.049990
1.98,0.042144,-0.206308,10.195564
1.99,-0.121701,-0.079834,9.904110
2.00,0.079011,-0.022202,9.934020
2.01,-0.004459,-0.018826,10.006133
2.02,0.026058,-0.055610,10.024534
2.03,0.153841,-0.104252,10.302468
2.04,0.005222,-0.152907,9.949171
2.05,0.014476,-0.112311,9.907256
2.06,0.105528,0.024063,9.943787
2.07,0.161873,-0.088633,10.060260
2.08,0.061160,-0.121060,10.085914
2.09,0.211934,-0.069210,9.965652
2.10,-0.006669,-0.111882,10.038102
2.11,-0.019746,-0.099107,10.230143
2.12,-0.025726,-0.137973,10.038752
2.13,-0.034036,-0.152246,10.066934
2.14,0.125668,-0.039936,10.223320
2.15,0.021008,-0.275958,9.964193
2.16,-0.013216,-0.081704,9.957217
2.17,0.130233,-0.157941,9.986139
2.18,0.165895,-0.271775,9.979854
2.19,0.184059,-0.196633,9.850070
2.20,0.169904,-0.120604,10.045484
2.21,0.026206,-0.108411,10.052880
2.22,0.121394,-0.055893,10.012091
2.23,0.138592,-0.048773,10.054902
2.24,0.060268,-0.235235,10.055433
2.25,0.110738,-0.079146,9.897462
2.26,-0.003389,-0.048682,10.057385
2.27,0.045600,-0.086845,10.083806
2.28,0.124504,-0.061337,9.867666
2.29,0.214204,-0.253095,10.173099
2.30,0.184444,-0.174464,9.902608
2.31,0.143815,0.017484,9.911753
2.32,0.095831,-0.110536,10.045151
2.33,0.081839,0.093514,10.077794
2.34,-0.029653,-0.182605,10.101449
2.35,0.017509,0.048943,10.079128
2.36,0.018215,-0.120683,9.970396
2.37,0.126420,0.001651,10.032550
2.38,0.153934,-0.086349,9.989344
2.39,0.135070,-0.048707,10.037745
2.40,0.168472,-0.005439,10.026462
2.41,0.077266,-0.097160,9.968414
2.42,-0.009608,0.021088,9.983462
2.43,0.062491,-0.059087,9.832233
2.44,0.005878,-0.018311,10.099727
2.45,0.113797,-0.238837,10.045722
2.46,0.029672,-0.048821,9.784540
2.47,0.047677,0.084686,10.093758
2.48,0.108144,0.044649,10.008365
2.49,-0.009601,0.065497,9.919202
2.50,0.123778,0.004351,9.909550
2.51,-0.064230,0.139704,9.942470
2.52,0.064969,0.034188,9.917332
2.53,0.029995,-0.036200,9.929950
2.54,0.100234,0.090492,10.178910
2.55,-0.079159,0.101331,10.045130
2.56,-0.094959,0.083296,10.210783
2.57,0.084200,0.006059,10.028916
2.58,-0.010399,0.066134,10.063426
2.59,0.010287,0.160363,9.916588
2.60,-0.038541,0.092346,9.987019
2.61,0.083980,-0.058863,9.994830
2.62,0.031661,0.014258,10.064206
2.63,0.023826,0.015745,9.996486
2.64,-0.092030,0.014659,10.035866
2.65,0.038793,-0.088593,10.031680
2.66,-0.083344,0.236972,9.969374
2.67,-0.058988,0.021204,9.958829
2.68,-0.117471,0.032803,9.932529
2.69,-0.022189,-0.052097,10.108100
2.70,0.074726,0.179076,9.970636
2.71,0.007764,0.109520,10.035549
2.72,-0.044631,0.096369,9.989815
2.73,0.001790,0.109011,10.115901
2.74,0.005208,0.189187,9.816756
2.75,0.007872,0.114129,10.054025
2.76,0.024563,0.005008,9.909203
2.77,-0.062580,0.073774,10.088180
2.78,0.042178,0.084153,10.053043
2.79,-0.090602,0.229910,9.943401
2.80,0.115470,0.300411,10.154307
2.81,0.004513,0.363405,10.178845
2.82,0.214177,0.137594,10.176530
2.83,-0.044363,0.342441,10.240423
2.84,0.320568,0.270269,10.326755
2.85,0.094802,0.582213,10.496910
2.86,0.172989,0.490014,10.424862
2.87,0.339264,0.548473,10.643131
2.88,0.413931,0.511302,10.631136
2.89,0.392859,0.513965,10.863784
2.90,0.539146,0.488694,10.814609
2.91,0.456306,0.511208,10.877868
2.92,0.539296,0.533689,10.941083
2.93,0.596090,0.685407,11.151010
2.94,0.622679,0.798319,11.172841
2.95,0.551808,0.680999,11.481593
2.96,0.739519,0.685755,11.331325
2.97,0.760384,0.656176,11.412418
2.98,0.876228,0.822446,11.585936
2.99,0.699148,0.925350,11.674547
3.00,0.754189,0.949092,11.637880
3.01,0.896074,0.971905,11.659759
3.02,0.808982,0.904525,11.515652
3.03,0.806861,0.882679,11.468577
3.04,0.768881,0.976563,11.611316
3.05,0.732084,0.777995,11.499790
3.06,0.798158,0.818715,11.311125
3.07,0.612130,0.972578,11.250527
3.08,0.472761,0.726303,11.120110
3.09,0.551398,0.781295,10.805242
3.10,0.400568,0.802028,10.813431
3.11,0.382806,0.721840,10.861099
3.12,0.368064,0.767705,10.682068
3.13,0.221624,0.755790,10.508565
3.14,0.198163,0.628196,10.578215
3.15,0.232056,0.655861,10.385015
3.16,0.108854,0.424570,10.353114
3.17,0.193382,0.440437,10.253246
3.18,0.003499,0.600145,10.216646
3.19,-0.025795,0.518859,10.178542
3.20,0.180797,0.218395,10.209334
3.21,-0.115400,0.278442,10.191038
3.22,-0.012923,0.251337,9.977380
3.23,0.122709,0.237050,10.037445
3.24,-0.039473,0.271365,10.112578
3.25,0.061290,0.284809,9.959360
3.26,-0.001340,0.111453,9.831475
3.27,-0.059332,0.171527,9.863594
3.28,-0.072846,0.109392,9.864359
3.29,-0.234259,0.033974,9.897722
3.30,-0.091471,-0.119826,9.865179
3.31,-0.047699,0.079956,10.039754
3.32,-0.047354,0.031278,9.906779
3.33,0.132356,0.000182,10.058608
3.34,-0.040994,-0.121726,9.817807
3.35,-0.011243,0.102713,9.894057
3.36,0.033658,-0.051319,9.938519
3.37,-0.013945,-0.163173,10.007963
3.38,-0.061523,-0.183373,10.040137
3.39,-0.058432,-0.031411,9.870868
3.40,-0.077162,-0.034652,10.023001
3.41,-0.010640,-0.133190,9.754453
3.42,-0.056782,-0.063432,10.008774
3.43,0.009933,-0.050769,9.786545
3.44,-0.117631,-0.096221,9.964336
3.45,-0.021944,-0.166309,10.031617
3.46,0.093733,-0.035669,10.006454
3.47,-0.045102,-0.047566,9.752852
3.48,0.123644,-0.070809,9.871090
3.49,-0.007335,-0.184239,9.986555
3.50,-0.021558,-0.225028,9.982745
3.51,-0.004294,-0.113127,9.940567
3.52,-0.035107,-0.045299,9.691877
3.53,-0.165195,-0.036569,10.030911
3.54,0.067114,-0.072910,10.047806
3.55,0.175572,-0.155291,9.925633
3.56,0.042044,-0.182923,9.931201
3.57,0.050366,-0.119009,9.957739
3.58,-0.004105,-0.117070,10.052573
3.59,0.106556,-0.026466,9.930686
3.60,0.014204,-0.151752,9.885620
3.61,0.042115,-0.143192,9.942002
3.62,-0.101112,0.055091,9.901857
3.63,-0.014903,0.017171,9.902118
3.64,0.060138,-0.174941,9.724638
3.65,0.106596,0.016010,9.952644
3.66,0.112043,-0.188199,10.016650
3.67,-0.085902,-0.129925,10.000691
3.68,-0.074654,-0.117370,9.992909
3.69,0.093383,-0.094315,9.891672
3.70,-0.010064,-0.034699,9.910709
3.71,0.124217,-0.071757,10.014458
3.72,-0.074858,-0.026922,9.981236
3.73,0.050522,-0.103914,10.042325
3.74,0.058426,-0.037343,9.825614
3.75,0.102299,-0.056337,9.824194
3.76,-0.016011,-0.168962,9.858043
3.77,-0.088318,-0.014375,9.796214
3.78,0.085184,-0.040339,9.757597
3.79,0.115970,-0.100044,9.935838
3.80,0.156737,-0.071735,9.928269
3.81,0.049651,-0.064511,9.912084
3.82,0.142491,-0.046748,9.922090
3.83,0.121303,0.118950,9.739606
3.84,0.190140,0.150888,9.837242
3.85,0.081722,-0.228948,9.855177
3.86,-0.050536,0.033680,9.888660
3.87,0.084041,0.076525,9.737126
3.88,0.098021,-0.011656,9.789623
3.89,0.133782,0.085368,9.838063
3.90,-0.029016,0.148921,9.986856
3.91,0.069796,-0.087728,9.906539
3.92,0.165255,0.038106,9.981841
3.93,0.088413,0.189273,9.866782
3.94,0.073098,-0.061029,9.878473
3.95,0.250764,0.033952,9.927638
3.96,0.013241,0.012388,9.859375
3.97,0.197959,0.137398,9.813997
3.98,0.181353,0.153421,9.726873
3.99,0.081868,0.075860,9.815450
4.00,0.097359,0.070071,9.958259
4.01,0.097062,-0.065560,10.000115
4.02,0.114405,0.190139,9.796147
4.03,0.052036,0.052212,9.699513
4.04,0.064979,0.073077,9.964981
4.05,0.070327,0.166011,9.878691
4.06,0.072276,0.107724,9.736506
4.07,0.072557,0.175664,9.559590
4.08,-0.082686,0.146870,9.773795
4.09,0.103438,0.117932,9.823317
4.10,0.052361,0.129284,9.753931
4.11,-0.055967,0.017225,9.937780
4.12,0.064081,0.097503,9.786835
4.13,0.060207,0.198289,9.868843
4.14,0.191192,0.041583,10.104471
4.15,0.044418,0.057922,9.878397
4.16,0.139258,0.046203,9.854636
4.17,0.194636,0.130026,9.856441
4.18,0.031841,0.230893,9.932191
4.19,0.076264,0.163149,9.919362
4.20,0.216241,-0.054346,9.764070
4.21,0.094053,0.171884,9.822892
4.22,0.103334,0.084557,9.796865
4.23,0.038464,0.160352,9.834933
4.24,0.123535,0.107068,10.045468
4.25,0.062844,0.049367,9.924168
4.26,-0.083188,0.111414,9.854073
4.27,0.032251,0.080495,9.986137
4.28,-0.036767,0.138867,9.880175
4.29,0.064015,0.041566,9.697175
4.30,-0.021229,0.020425,10.027039
4.31,0.087388,0.166702,9.844673
4.32,0.049680,0.194343,9.634389
4.33,-0.056835,0.149319,9.699717
4.34,0.000458,0.048075,9.972146
4.35,0.086313,0.037623,9.700743
4.36,0.125272,0.038878,9.993720
4.37,-0.042038,0.161160,9.866626
4.38,-0.060952,0.020187,9.929643
4.39,0.179578,0.152995,9.832314
4.40,0.019346,0.129132,9.910080
4.41,0.024048,0.172941,9.889159
4.42,-0.045837,0.154564,9.853416
4.43,0.027100,0.108366,9.750501
4.44,0.143646,-0.057236,9.892682
4.45,0.023336,0.104247,9.674920
4.46,0.084728,0.059737,9.949574
4.47,-0.001605,0.015594,9.875933
4.48,-0.089438,0.149293,9.902472
4.49,-0.065474,0.022983,9.594189
4.50,-0.103668,-0.012565,9.743141
4.51,-0.000232,0.114355,9.804982
4.52,0.076866,-0.013390,9.922779
4.53,-0.011529,-0.032795,9.760990
4.54,-0.052369,-0.082089,10.109940
4.55,-0.094220,-0.063028,9.828686
4.56,-0.005879,-0.061669,9.753302
4.57,-0.136590,0.041268,9.836110
4.58,-0.131448,-0.095421,9.759602
4.59,0.028162,-0.167973,9.736172
4.60,-0.069149,-0.000497,9.955621
4.61,-0.073749,-0.080829,9.905773
4.62,-0.066441,-0.036709,9.905996
4.63,0.002254,0.061966,9.981998
4.64,-0.045409,-0.040038,9.902939
4.65,-0.120860,0.069969,9.747487
4.66,-0.120670,-0.061183,9.925056
4.67,-0.082325,0.020011,9.741502
4.68,-0.045073,-0.109027,9.806339
4.69,-0.074542,-0.061167,9.849558
4.70,-0.084026,-0.148822,9.839406
4.71,-0.072642,-0.143568,9.675007
4.72,-0.081428,-0.100487,9.757373
4.73,-0.143053,-0.192704,9.851899
4.74,0.005946,-0.077399,9.793104
4.75,-0.123101,-0.117906,9.966829
4.76,-0.075974,-0.078258,9.983989
4.77,-0.252832,-0.205216,9.742246
4.78,-0.106807,-0.046947,9.860310
4.79,-0.179042,0.030016,10.012664
4.80,-0.170769,0.010644,9.841035
4.81,0.100066,0.041776,9.813830
4.82,-0.074897,-0.109168,9.940628
4.83,0.002186,-0.142537,9.827269
4.84,-0.028394,-0.076892,9.981867
4.85,-0.018966,-0.136261,9.795402
4.86,-0.114241,-0.257496,9.807520
4.87,0.029624,-0.053526,9.934104
4.88,-0.031608,-0.138380,9.865258
4.89,-0.096372,-0.237323,9.866165
4.90,-0.078833,-0.160652,9.664518
4.91,-0.110933,-0.136725,9.820242
4.92,-0.095793,-0.118396,9.942126
4.93,-0.103319,-0.116734,9.777495
4.94,-0.069048,-0.008170,9.926082
4.95,0.040006,-0.219577,9.882969
4.96,-0.195112,-0.127222,9.836359
4.97,-0.006691,-0.183683,9.992272
4.98,-0.126805,-0.010949,9.822682
4.99,0.005075,-0.154201,9.829828
5.00,-0.122209,-0.134403,9.835909
5.01,-0.061435,-0.020309,9.865261
5.02,-0.105972,0.004530,9.934094
5.03,-0.230410,0.019403,9.710338
5.04,0.048568,-0.226604,9.944597
5.05,-0.164451,-0.053069,9.864806
5.06,-0.080693,-0.066448,9.913608
5.07,-0.169867,-0.088325,10.097602
5.08,-0.190800,-0.074893,9.807467
5.09,-0.098302,0.026820,9.736387
5.10,-0.127356,0.011381,9.878458
5.11,-0.171254,0.004534,9.894523
5.12,-0.078364,-0.046037,9.946699
5.13,-0.191773,0.123817,9.805936
5.14,-0.060785,-0.084998,9.777002
5.15,-0.078528,-0.177232,9.706959
5.16,-0.264211,-0.064080,9.723752
5.17,-0.104986,-0.033057,9.819154
5.18,-0.022947,0.071842,9.849344
5.19,-0.142714,-0.067959,10.067771
5.20,-0.013829,0.017606,9.692256
5.21,-0.017235,-0.134438,9.895315
5.22,-0.130282,0.075724,9.789445
5.23,-0.046803,0.000167,9.884590
5.24,0.023277,-0.022241,9.807248
5.25,-0.109686,0.176238,9.966380
5.26,-0.052841,0.096788,9.966033
5.27,0.058883,-0.066525,9.852078
5.28,-0.098467,0.013342,10.007576
5.29,0.010192,0.246384,9.939954
5.30,-0.109529,0.191111,10.003478
5.31,-0.032696,0.111900,9.860190
5.32,0.019317,-0.104523,9.959966
5.33,-0.205365,0.154900,9.788244
5.34,-0.052315,0.002499,9.778390
5.35,0.028222,0.164068,10.083624
5.36,0.015395,0.005124,9.757342
5.37,-0.041007,0.106663,9.822607
5.38,-0.084129,0.020810,9.676705
5.39,0.057964,0.047295,9.782209
5.40,-0.014665,0.130297,9.767662
5.41,0.058182,-0.020995,9.800346
5.42,0.048382,0.278127,9.897654
5.43,-0.014441,0.009787,9.922060
5.44,0.110520,0.008751,9.767566
5.45,-0.019494,0.148651,9.789571
5.46,0.126584,0.205025,9.977179
5.47,0.140313,0.078589,10.039647
5.48,0.121840,0.021364,9.994998
5.49,0.026561,0.035662,9.705062
5.50,0.247899,0.029191,9.988924
5.51,0.059355,0.138153,10.055639
5.52,0.069509,0.109567,9.700962
5.53,0.051417,0.150657,9.979111
5.54,-0.034305,0.146960,9.893647
5.55,0.162510,0.184647,9.838694
5.56,0.015868,0.086589,9.882307
5.57,0.137913,0.060759,9.916294
5.58,0.159715,0.132498,9.988003
5.59,0.117743,0.115522,9.983122
5.60,0.016563,0.139832,9.722102
5.61,0.046992,0.062081,9.808199
5.62,-0.137619,0.169568,9.882692
5.63,0.069407,0.022845,10.030824
5.64,0.145025,0.080562,9.601118
5.65,0.063795,0.204550,9.813045
5.66,0.037477,0.021915,9.721599
5.67,0.062650,0.194397,9.737706
5.68,0.185383,-0.004625,9.973471
5.69,0.085383,-0.021218,9.821959
5.70,0.239837,-0.016633,9.642025
5.71,0.046908,0.109280,9.859795
5.72,0.111197,0.155152,10.079465
5.73,0.060286,0.196837,9.695447
5.74,0.261944,0.186908,9.929643
5.75,0.111273,0.155154,10.033349
5.76,0.267939,0.015674,9.871862
5.77,0.064762,0.010882,10.069825
5.78,0.221141,0.136887,9.811261
5.79,0.108819,0.183155,10.022049
5.80,0.166636,-0.017601,9.998658
5.81,0.002333,0.163713,9.874615
5.82,0.127870,-0.098257,9.729347
5.83,0.014435,0.081625,9.778089
5.84,0.120380,0.037080,9.644033
5.85,-0.021930,0.023908,9.938052
5.86,0.091625,0.037519,9.926246
5.87,0.186292,-0.038580,9.886913
5.88,0.141822,0.060043,9.866889
5.89,-0.001442,0.023797,10.015083
5.90,-0.055456,0.088315,9.909262
5.91,0.135196,0.135240,9.824170
5.92,0.220848,0.012664,9.894504
5.93,0.016035,-0.068491,10.084673
5.94,0.259631,-0.099523,9.942274
5.95,0.089897,0.121890,9.841194
5.96,-0.067809,0.106210,9.875862
5.97,-0.037620,0.046160,9.926763
5.98,0.147106,-0.025398,9.838427
5.99,0.094034,0.029734,9.829684
6.00,0.200303,0.063659,9.879603
6.01,-0.016164,-0.095268,10.032734
6.02,0.087031,-0.048485,9.960006
6.03,0.075864,-0.144297,9.840032
6.04,0.061565,-0.070936,9.967955
6.05,0.039993,0.058246,9.881974
6.06,0.039096,0.016440,9.915630
6.07,0.079513,-0.063444,9.906581
6.08,0.087100,-0.293947,9.670233
6.09,0.080375,-0.135032,9.576548
6.10,0.153853,-0.078281,9.903978
6.11,-0.041593,-0.107471,9.796047
6.12,-0.093354,-0.091110,9.717416
6.13,0.129947,-0.077662,9.799143
6.14,-0.029941,-0.142896,9.973802
6.15,0.012080,-0.103726,9.917105
6.16,-0.009684,-0.117784,9.958476
6.17,-0.014598,-0.164568,9.926578
6.18,-0.083822,0.037141,9.789346
6.19,-0.016006,-0.150705,9.958836
6.20,0.078184,-0.294710,9.939699
6.21,0.022574,0.026744,9.869311
6.22,0.059872,-0.184920,9.886870
6.23,-0.023576,-0.046279,9.960149
6.24,0.084919,-0.173547,9.805866
6.25,-0.031412,-0.074087,9.989499
6.26,-0.162873,-0.123783,9.937111
6.27,0.027689,-0.039952,9.880708
6.28,0.060295,-0.136869,10.033478
6.29,-0.049289,-0.171738,9.750784
6.30,0.087940,-0.098037,9.834053
6.31,-0.079489,-0.148229,9.811690
6.32,0.038802,-0.270742,9.915559
6.33,0.121324,-0.163053,9.997817
6.34,-0.018697,0.116297,9.781091
6.35,-0.043102,-0.256932,10.209751
6.36,-0.036747,-0.089701,9.812726
6.37,0.098705,-0.125921,9.914863
6.38,-0.002549,0.043182,9.878851
6.39,0.133616,-0.189588,9.882985
6.40,-0.018651,-0.089296,9.798916
6.41,-0.096270,-0.038910,9.984710
6.42,-0.093506,-0.104247,9.792380
6.43,-0.044609,-0.147076,9.700732
6.44,-0.215373,-0.082856,9.765335
6.45,-0.092367,-0.100854,10.022066
6.46,-0.092601,-0.095652,10.002718
6.47,-0.038838,0.009709,9.677284
6.48,0.096140,-0.026033,9.960005
6.49,-0.055428,-0.007013,9.681470
6.50,-0.213517,-0.016890,9.878533
6.51,-0.131822,0.042145,9.762841
6.52,-0.035648,0.079307,9.976079
6.53,-0.045800,-0.037287,9.947205
6.54,0.081681,0.063102,9.996185
6.55,0.035357,-0.092894,9.877424
6.56,0.041960,-0.154669,9.899333
6.57,-0.038316,0.188142,9.783502
6.58,0.081332,0.033655,9.849505
6.59,-0.060750,0.100813,10.071478
6.60,0.109395,0.005028,10.043183
6.61,0.034101,0.026032,10.053292
6.62,-0.030415,0.097762,10.212807
6.63,0.165704,0.235715,10.008313
6.64,0.266981,0.174895,10.270563
6.65,0.163587,0.223714,10.149606
6.66,0.365827,0.227713,10.492998
6.67,0.156367,0.419424,10.485665
6.68,0.243905,0.436507,10.621187
6.69,0.380749,0.370846,10.554360
6.70,0.416804,0.508195,10.947096
6.71,0.447181,0.478643,11.035560
6.72,0.564306,0.516473,10.985525
6.73,0.562148,0.584590,11.163976
6.74,0.623070,0.684396,11.114443
6.75,0.716728,0.604589,11.107174
6.76,0.677891,0.757197,11.391300
6.77,0.752806,0.955241,11.283150
6.78,0.731944,0.805217,11.552887
6.79,0.701107,0.824726,11.555158
6.80,0.863895,0.842047,11.483060
6.81,0.935804,0.909092,11.466929
6.82,0.871998,0.758816,11.518048
6.83,0.792688,1.035023,11.398418
6.84,0.686446,0.983017,11.265782
6.85,0.679580,0.852781,11.075707
6.86,0.746023,0.900973,11.232283
6.87,0.433173,0.842419,11.073483
6.88,0.537377,0.894229,11.207069
6.89,0.573661,0.853579,10.813756
6.90,0.371320,0.840897,10.745359
6.91,0.443794,0.710357,10.641971
6.92,0.388740,0.720780,10.573336
6.93,0.192903,0.814948,10.316680
6.94,0.269622,0.642435,10.318266
6.95,0.170001,0.434080,10.329692
6.96,0.213143,0.593092,10.143303
6.97,0.197873,0.757389,10.194003
6.98,0.144720,0.591987,10.071551
6.99,0.091186,0.437713,10.056956
7.00,0.084993,0.441940,10.094107
7.01,-0.051976,0.463445,9.925053
7.02,0.023323,0.233425,9.777157
7.03,-0.051125,0.272318,9.875208
7.04,0.084729,0.341697,9.802952
7.05,0.048941,0.408641,9.660043
7.06,0.042922,0.219435,9.851854
7.07,0.121594,0.355659,9.874562
7.08,-0.044331,0.147816,9.950624
7.09,-0.063034,-0.082772,9.729857
7.10,-0.047546,0.229395,9.848907
7.11,-0.146744,0.196708,9.949896
7.12,-0.139091,0.197563,9.777217
7.13,0.034371,0.181071,9.886305
7.14,-0.124632,0.128555,9.990744
7.15,-0.096404,0.081540,9.643220
7.16,-0.015701,0.074586,9.855352
7.17,-0.037517,0.046230,9.943091
7.18,0.069467,0.042547,9.790503
7.19,0.006697,-0.078208,9.963058
7.20,-0.058710,-0.037895,9.886632
7.21,0.086245,0.039139,9.998982
7.22,0.070188,-0.133781,9.879132
7.23,-0.097616,-0.121613,10.004976
7.24,0.038819,0.005995,9.848554
7.25,-0.035205,0.016351,9.680599
7.26,-0.033969,-0.004450,9.753095
7.27,0.178226,-0.175675,9.916839
7.28,0.041894,0.133088,9.913671
7.29,0.017801,-0.111757,9.781531
7.30,0.045211,-0.068006,9.991801
7.31,0.111520,-0.109134,9.774745
7.32,-0.011431,0.090146,9.855101
7.33,0.005293,0.014411,9.851084
7.34,0.103301,-0.062627,9.673352
7.35,-0.067598,-0.073656,9.794083
7.36,0.135858,-0.021117,10.041890
7.37,-0.069004,-0.140447,9.710347
7.38,0.042493,-0.015410,9.863796
7.39,-0.063083,-0.094806,9.684540
7.40,-0.017084,-0.014279,9.705398
7.41,0.173741,-0.021808,9.655919
7.42,0.155912,-0.112841,9.890127
7.43,0.166803,-0.234117,9.707545
7.44,-0.038969,-0.094046,9.920088
7.45,-0.004974,-0.194502,9.738854
7.46,0.108366,-0.076331,9.803425
7.47,0.140371,-0.107051,9.830394
7.48,0.021055,-0.137287,9.626191
7.49,0.040470,-0.197424,9.806858
7.50,-0.002059,-0.002170,9.820090
7.51,0.222668,-0.136538,9.897701
7.52,0.053463,0.085106,9.686341
7.53,0.095306,-0.103070,9.699174
7.54,0.100726,-0.080217,9.845408
7.55,0.183603,-0.107458,9.919262
7.56,0.019962,-0.085289,9.717335
7.57,0.190511,-0.026981,9.651621
7.58,-0.004472,-0.027600,9.742017
7.59,0.191741,-0.258564,9.670899
7.60,-0.038200,-0.049847,9.810545
7.61,0.091082,-0.079317,9.661312
7.62,0.229785,-0.116769,9.865108
7.63,0.155715,0.017064,9.787595
7.64,0.133699,0.020234,9.865253
7.65,0.016072,-0.047415,9.521016
7.66,0.040988,-0.162809,9.586029
7.67,0.207031,-0.214017,9.889603
7.68,0.136855,-0.057310,9.686869
7.69,0.169758,-0.007694,9.610663
7.70,0.103794,-0.277300,9.735507
7.71,0.074588,-0.026412,9.778480
7.72,0.157579,-0.131775,9.736909
7.73,0.115999,-0.253942,9.797970
7.74,0.080545,-0.069276,9.782873
7.75,-0.020200,-0.031459,9.776087
7.76,0.167901,-0.129480,9.881354
7.77,0.125349,-0.182909,9.743539
7.78,0.040096,0.041904,9.739034
7.79,0.181282,-0.145096,9.822104
7.80,0.104688,0.004803,9.795516
7.81,0.104394,-0.205163,9.648387
7.82,0.152074,-0.046826,9.727880
7.83,0.132801,-0.044925,9.779330
7.84,0.100647,-0.001712,9.675235
7.85,0.059822,0.052345,9.678409
7.86,0.231268,-0.127552,9.591585
7.87,0.011451,-0.016036,9.440854
7.88,0.127328,-0.162138,9.690122
7.89,0.058357,-0.158050,9.738654
7.90,0.098780,-0.088987,9.614777
7.91,0.158340,-0.004787,9.860495
7.92,0.031932,0.101882,9.616425
7.93,0.102129,0.121781,9.810733
7.94,0.072286,-0.049935,9.759730
7.95,-0.003265,0.008334,9.933877
7.96,0.145629,0.064801,9.768606
7.97,0.098763,0.056083,9.568371
7.98,0.003941,-0.013202,9.816811
7.99,0.123784,0.011945,9.879506
8.00,-0.034268,0.002531,9.530899
8.01,0.026641,0.000142,9.770404
8.02,-0.008707,-0.005071,9.790893
8.03,0.082381,0.018052,9.681948
8.04,-0.019480,0.000485,9.459403
8.05,0.076169,-0.052627,9.670371
8.06,0.059625,0.112388,9.640227
8.07,-0.021389,0.089767,9.849679
8.08,0.151561,0.203576,9.686209
8.09,-0.057889,0.087880,9.652204
8.10,-0.114447,0.029709,9.633151
8.11,0.063309,0.017566,9.722744
8.12,-0.180579,0.075942,9.694224
8.13,0.107282,0.120704,9.607911
8.14,-0.007346,0.061057,9.711677
8.15,-0.133049,-0.032997,9.627920
8.16,-0.098149,0.029315,9.422790
8.17,-0.156354,0.093504,9.747191
8.18,0.001679,0.154717,9.736081
8.19,-0.138394,-0.020140,9.697112
8.20,0.004675,0.122956,9.631269
8.21,-0.063087,0.122249,9.666688
8.22,-0.079893,0.071023,9.754204
8.23,-0.004229,0.062560,9.607477
8.24,0.001845,0.052742,9.755008
8.25,0.040627,0.124812,9.519947
8.26,-0.104680,0.205353,9.682639
8.27,-0.059239,0.212449,9.666792
8.28,-0.110489,0.027881,9.762881
8.29,-0.049361,0.103766,9.569119
8.30,-0.127326,-0.056081,9.578433
8.31,-0.101575,0.128558,9.518371
8.32,-0.103672,0.167808,9.599557
8.33,-0.049103,0.245592,9.680185
8.34,-0.074669,-0.023333,9.473276
8.35,-0.036646,0.031954,9.607191
8.36,-0.087862,0.129696,9.710987
8.37,-0.127740,-0.012389,9.638050
8.38,-0.068017,0.129530,9.654292
8.39,-0.158555,0.164020,9.494601
8.40,-0.041407,0.009864,9.633650
8.41,-0.111432,0.120925,9.644972
8.42,-0.073783,0.011060,9.624185
8.43,-0.073984,0.215563,9.654297
8.44,0.035205,0.119330,9.606569
8.45,-0.063614,0.048646,9.590348
8.46,-0.089392,-0.002356,9.530451
8.47,-0.151635,0.124467,9.730356
8.48,-0.032935,0.198413,9.508732
8.49,-0.119506,0.024313,9.645687
8.50,-0.220576,0.046935,9.809713
8.51,-0.114674,0.017837,9.737044
8.52,-0.084160,0.198184,9.676350
8.53,-0.165252,-0.083364,9.648909
8.54,-0.109400,0.167610,9.609685
8.55,-0.105719,0.029887,9.530862
8.56,-0.104407,0.049507,9.594155
8.57,-0.000979,0.023043,9.675576
8.58,-0.204372,0.064413,9.655616
8.59,0.063680,-0.018282,9.694082
8.60,-0.101111,0.119544,9.735749
8.61,-0.051409,0.117492,9.596517
8.62,-0.086824,-0.054464,9.630136
8.63,-0.234242,0.072192,9.419641
8.64,-0.179681,-0.015179,9.833773
8.65,-0.135978,0.011989,9.565382
8.66,-0.013306,0.124372,9.670559
8.67,-0.202207,-0.057067,9.562569
8.68,-0.158469,0.065483,9.558888
8.69,-0.075263,0.022450,9.577612
8.70,-0.048958,-0.035091,9.475459
8.71,-0.049600,0.004416,9.350618
8.72,-0.161869,-0.010459,9.713287
8.73,-0.209018,-0.128292,9.650576
8.74,-0.035988,-0.089378,9.503118
8.75,0.037697,-0.129591,9.638602
8.76,-0.102324,-0.073135,9.674522
8.77,-0.163933,0.051671,9.521555
8.78,-0.104321,-0.014259,9.630780
8.79,-0.035894,-0.180029,9.689024
8.80,-0.083478,-0.091835,9.443269
8.81,0.050418,-0.055673,9.639215
8.82,0.014584,-0.019076,9.621094
8.83,-0.041852,-0.134739,9.771493
8.84,-0.210063,-0.185573,9.637955
8.85,-0.106152,-0.094805,9.539979
8.86,-0.091606,-0.048304,9.550374
8.87,-0.104429,-0.078370,9.781070
8.88,-0.026317,-0.171059,9.542096
8.89,-0.021500,0.037169,9.635057
8.90,-0.169129,-0.113805,9.551478
8.91,0.032420,-0.092879,9.682328
8.92,-0.027365,-0.163582,9.686166
8.93,0.003284,-0.024120,9.569742
8.94,0.037616,-0.068671,9.530255
8.95,-0.079944,-0.090784,9.526806
8.96,0.085532,-0.209384,9.396088
8.97,-0.023099,-0.030777,9.577830
8.98,0.112686,-0.058545,9.574787
8.99,-0.076384,-0.038451,9.484121
9.00,0.113644,-0.116980,9.381252
9.01,-0.070279,-0.125976,9.584375
9.02,0.209395,-0.134346,9.596035
9.03,-0.067207,0.063001,9.601276
9.04,0.096902,-0.162003,9.461871
9.05,-0.013195,-0.212546,9.599609
9.06,0.076400,-0.146299,9.541153
9.07,0.019336,-0.157636,9.644555
9.08,-0.061368,-0.012503,9.459732
9.09,-0.194495,-0.219837,9.671357
9.10,0.233145,-0.154094,9.706471
9.11,0.041628,-0.091552,9.566231
9.12,-0.196492,-0.002709,9.594156
9.13,0.066358,-0.044281,9.631357
9.14,0.100424,0.031244,9.449592
9.15,-0.008895,-0.067353,9.502744
9.16,-0.005361,-0.107846,9.569016
9.17,0.052655,-0.019459,9.752522
9.18,0.153320,-0.193438,9.429475
9.19,0.067911,-0.216841,9.712126
9.20,0.179703,0.002234,9.528314
9.21,0.155798,-0.054679,9.543491
9.22,0.049576,0.010089,9.668053
9.23,-0.055267,-0.130587,9.747722
9.24,0.054654,0.045151,9.587206
9.25,0.117232,0.000884,9.660756
9.26,0.082141,-0.050237,9.451625
9.27,0.130247,-0.026062,9.490100
9.28,0.150615,-0.009707,9.407209
9.29,0.125962,-0.100734,9.490317
9.30,0.063319,-0.057662,9.597838
9.31,0.128685,0.005020,9.561983
9.32,0.267579,-0.050045,9.712949
9.33,-0.028910,-0.128118,9.745196
9.34,0.130695,0.018519,9.525576
9.35,0.239595,0.067313,9.470777
9.36,0.000279,0.091415,9.654283
9.37,0.175433,0.054006,9.664253
9.38,0.187107,0.082351,9.581523
9.39,-0.020948,0.101316,9.607537
9.40,0.154943,0.034071,9.591497
9.41,0.076885,-0.136490,9.437322
9.42,0.094274,0.131060,9.413974
9.43,0.073514,-0.028013,9.530390
9.44,0.204808,-0.041935,9.515055
9.45,0.090986,-0.034756,9.562524
9.46,0.062934,0.257151,9.521407
9.47,0.064213,0.098374,9.363920
9.48,0.072449,-0.015586,9.322760
9.49,0.013051,0.017540,9.607473
9.50,0.061210,0.076474,9.467218
9.51,0.107843,0.124082,9.510068
9.52,0.130111,0.107020,9.477284
9.53,0.193298,0.014198,9.441595
9.54,0.115352,0.117482,9.438750
9.55,0.057100,0.046645,9.634571
9.56,0.013045,0.182522,9.508541
9.57,0.116245,0.106293,9.595819
9.58,0.081944,0.043850,9.609154
9.59,0.083127,0.162300,9.563823
9.60,0.109306,0.140204,9.612308
9.61,0.128181,0.073686,9.533490
9.62,0.106431,0.171979,9.668412
9.63,0.069332,0.165558,9.614362
9.64,0.016885,0.212790,9.627671
9.65,0.029898,0.174624,9.438199
9.66,0.144612,0.101619,9.558416
9.67,0.040604,-0.015835,9.348647
9.68,-0.035542,0.134759,9.672327
9.69,0.162472,0.147341,9.469985
9.70,-0.008204,0.124008,9.483958
9.71,0.067407,-0.121293,9.395819
9.72,0.101204,0.173296,9.529073
9.73,0.059418,0.045188,9.506037
9.74,-0.141911,0.171923,9.715311
9.75,0.084691,0.251788,9.619161
9.76,0.156617,0.093933,9.481986
9.77,0.110410,0.147420,9.367059
9.78,-0.125501,0.112911,9.305563
9.79,0.211476,0.150051,9.431570
9.80,-0.067943,0.113768,9.401357
9.81,-0.051365,0.061401,9.569639
9.82,0.094200,0.027414,9.520600
9.83,0.064581,0.223887,9.537162
9.84,0.031450,0.128372,9.440888
9.85,-0.023889,0.156170,9.551352
9.86,0.124746,0.117906,9.394493
9.87,0.011723,0.160114,9.528107
9.88,-0.113821,0.006274,9.620381
9.89,0.106589,0.080340,9.501249
9.90,0.022099,0.109705,9.582610
9.91,0.090302,0.168114,9.341030
9.92,0.043450,0.273845,9.333495
9.93,0.185523,0.087773,9.572433
9.94,-0.034050,-0.002660,9.644930
9.95,-0.011399,-0.050472,9.516943
9.96,0.041480,-0.032348,9.755841
9.97,-0.043810,-0.027118,9.397552
9.98,0.041328,-0.202573,9.474481
9.99,-0.262025,-0.029896,9.557093
10.00,-0.035371,0.076091,9.590142
10.01,-0.041069,0.019344,9.485952
10.02,-0.047207,-0.012840,9.439070
10.03,-0.109420,-0.127376,9.607694
10.04,0.030079,0.080949,9.559679
10.05,-0.085857,0.032420,9.512598
10.06,-0.032508,-0.014961,9.597665
10.07,-0.054463,-0.195472,9.534892
10.08,-0.014344,-0.063797,9.535315
10.09,0.057308,0.004999,9.532419
10.10,-0.044256,-0.037018,9.468787
10.11,0.004870,-0.024253,9.459469
10.12,-0.053290,0.010545,9.500069
10.13,-0.107631,-0.036360,9.556804
10.14,-0.080542,-0.000932,9.367510
10.15,-0.093717,-0.124221,9.650269
10.16,-0.027088,-0.157991,9.558958
10.17,-0.065130,-0.024941,9.452151
10.18,-0.137846,-0.010942,9.722178
10.19,-0.092110,-0.025770,9.566989
10.20,-0.195741,-0.057755,9.432175
10.21,-0.086848,-0.094319,9.726533
10.22,-0.069287,-0.050616,9.709571
10.23,0.079300,-0.035089,9.489307
10.24,0.048104,-0.026908,9.555765
10.25,-0.135020,0.151386,9.552440
10.26,-0.026486,-0.124321,9.422209
10.27,-0.012901,0.215792,9.660052
10.28,-0.033845,-0.132447,9.732715
10.29,-0.010523,0.011529,9.739478
10.30,-0.003787,-0.099986,9.708438
10.31,0.199827,0.037518,9.837348
10.32,0.046172,0.111610,9.674926
10.33,0.140295,0.058351,10.023638
10.34,-0.051630,0.159017,9.826466
10.35,0.258260,0.075408,9.908214
10.36,0.332556,-0.023919,9.996174
10.37,0.202442,0.223475,10.076605
10.38,0.297216,0.211355,10.217409
10.39,0.427883,0.208124,10.315091
10.40,0.448055,0.252913,10.457352
10.41,0.538654,0.358811,10.471152
10.42,0.532182,0.302430,10.678305
10.43,0.755801,0.439163,10.658429
10.44,0.601266,0.545445,10.940789
10.45,0.913587,0.655411,11.030852
10.46,0.835199,0.641622,11.037901
10.47,0.833147,0.578618,11.038830
10.48,0.706372,0.619851,11.183681
10.49,0.877080,0.597330,11.094318
10.50,0.858581,0.618225,11.197733
10.51,0.637786,0.746915,11.170613
10.52,0.683338,0.669394,11.420983
10.53,0.804322,0.735007,10.989231
10.54,0.737343,0.635147,10.782595
10.55,0.672118,0.822841,10.908644
10.56,0.759332,0.683175,10.712254
10.57,0.557182,0.786616,10.713775
10.58,0.542834,0.628998,10.553563
10.59,0.476593,0.605979,10.486954
10.60,0.517211,0.749907,10.364981
10.61,0.286957,0.567192,10.464313
10.62,0.333916,0.462481,10.264307
10.63,0.187116,0.472998,10.284137
10.64,0.253843,0.591276,10.095606
10.65,0.293951,0.549024,10.107722
10.66,0.256319,0.392102,9.916690
10.67,0.103735,0.367556,10.047175
10.68,0.173564,0.437514,9.884142
10.69,0.089077,0.455581,9.716404
10.70,0.189678,0.312897,9.820998
10.71,0.050994,0.332625,9.733080
10.72,-0.192428,0.330102,9.687186
10.73,0.104128,0.406657,9.699072
10.74,-0.014259,0.118520,9.750812
10.75,-0.007112,0.136475,9.453617
10.76,0.036160,0.130888,9.622771
10.77,-0.108436,0.221434,9.720881
10.78,0.009271,0.121210,9.673955
10.79,0.045057,0.154658,9.534384
10.80,0.031432,0.129778,9.409180
10.81,-0.044787,0.112391,9.815767
10.82,0.083945,0.114758,9.627266
10.83,-0.073246,0.183984,9.798103
10.84,-0.041142,0.020697,9.727225
10.85,0.000654,0.084369,9.569615
10.86,0.038016,-0.002096,9.400234
10.87,-0.008589,0.112950,9.605671
10.88,0.118760,0.079553,9.649745
10.89,0.047261,0.181642,9.700171
10.90,0.032891,0.097039,9.545689
10.91,0.050864,0.063549,9.676275
10.92,0.091897,0.081165,9.677954
10.93,0.055721,0.240754,9.760515
10.94,-0.105137,-0.020684,9.632979
10.95,0.129915,0.056767,9.709684
10.96,0.055413,0.111848,9.696008
10.97,0.103663,0.059964,9.756486
10.98,0.019379,0.151921,9.588705
10.99,-0.091363,0.109784,9.365384
11.00,-0.124682,0.136244,9.650562
11.01,-0.015131,0.126461,9.652936
11.02,0.104518,0.109852,9.562069
11.03,0.169607,0.015672,9.528808
11.04,0.092497,0.133638,9.623941
11.05,-0.013358,-0.021145,9.671724
11.06,0.010487,0.066307,9.694560
11.07,0.184389,0.159093,9.458295
11.08,-0.027116,0.214778,9.513284
11.09,0.248015,0.306955,9.803410
11.10,0.231987,0.083893,9.673313
11.11,0.254615,0.047849,9.693852
11.12,0.116127,0.157502,9.562595
11.13,0.060080,0.263736,9.697308
11.14,0.117536,0.234937,9.662012
11.15,0.163235,0.027454,9.639559
11.16,0.039899,0.096732,9.557064
11.17,0.005167,0.173487,9.618236
11.18,0.071739,0.176298,9.904126
11.19,0.033748,0.147117,9.673819
11.20,0.195767,0.060706,9.789571
11.21,0.048031,0.139877,9.692813
11.22,0.105729,0.164026,9.683087
11.23,0.177337,0.011366,9.652545
11.24,0.201579,0.188416,9.852557
11.25,0.116255,0.157250,9.757149
11.26,0.130575,0.014269,9.642731
11.27,0.018613,0.143197,9.684130
11.28,0.181839,0.129685,9.832982
11.29,0.200978,0.128024,9.443388
11.30,-0.049949,0.181180,9.760143
11.31,0.240379,0.049320,9.784703
11.32,0.042836,0.071627,9.657818
11.33,0.145887,-0.171139,9.750102
11.34,0.103831,0.123995,9.786722
11.35,0.091990,0.110993,9.615225
11.36,0.079376,0.132544,9.824380
11.37,0.015456,-0.056289,9.771767
11.38,0.135617,0.090154,9.728580
11.39,0.069565,0.089208,9.756214
11.40,-0.013677,-0.049865,9.818282
11.41,0.006795,0.081182,9.981015
11.42,-0.015388,0.028252,9.812236
11.43,0.044347,-0.150110,9.834136
11.44,0.123326,0.027041,9.774265
11.45,0.025731,-0.086501,9.946909
11.46,0.158660,-0.164553,9.611974
11.47,0.068996,-0.006443,9.586660
11.48,0.053195,-0.046209,9.777527
11.49,0.075411,0.066195,9.830059
11.50,0.183317,-0.036604,9.508401
11.51,-0.040453,0.006216,9.767333
11.52,0.199229,-0.020166,9.751439
11.53,0.140919,0.016128,9.845711
11.54,0.059684,-0.141001,9.815973
11.55,0.153295,-0.058598,9.594077
11.56,0.030022,-0.089975,9.668690
11.57,0.075774,-0.030492,9.697808
11.58,0.006643,-0.066218,9.854169
11.59,0.124252,-0.139519,9.819523
11.60,-0.012726,-0.120955,9.721764
11.61,0.036614,0.034634,9.800065
11.62,0.091875,-0.235915,9.681579
11.63,0.118174,-0.046529,9.994107
11.64,-0.034639,-0.006655,9.848338
11.65,0.088001,-0.062134,9.871273
11.66,-0.054144,0.046998,9.932085
11.67,-0.150977,-0.037611,9.897770
11.68,-0.042186,-0.083735,9.801036
11.69,0.081021,-0.153334,9.781117
11.70,0.009842,-0.085070,9.930167
11.71,-0.035422,-0.063790,9.805711
11.72,0.008366,-0.118836,9.729868
11.73,0.002265,-0.179084,10.003139
11.74,0.046770,-0.216285,9.714583
11.75,-0.135370,-0.105152,9.636398
11.76,-0.018066,-0.238195,9.910833
11.77,-0.003368,-0.157026,9.740110
11.78,-0.125956,-0.313124,9.858416
11.79,-0.130449,-0.050976,9.998293
11.80,-0.052672,-0.024079,9.680745
11.81,-0.026157,-0.108627,9.815788
11.82,-0.029188,0.033275,9.969863
11.83,-0.077936,-0.003511,9.891346
11.84,-0.084451,-0.070745,9.806803
11.85,-0.071471,-0.115782,10.065342
11.86,-0.019120,-0.132049,9.818484
11.87,0.053474,-0.056251,9.869306
11.88,-0.226766,-0.109489,9.996149
11.89,-0.002274,-0.051066,9.930887
11.90,-0.063924,-0.041662,9.966551
11.91,-0.015826,-0.106167,9.745994
11.92,0.034177,0.003705,9.960327
11.93,-0.123787,-0.098222,9.856020
11.94,0.009533,-0.074043,9.766026
11.95,-0.168891,-0.149605,9.864332
11.96,-0.060834,-0.088556,9.862688
11.97,-0.092832,0.110388,10.031987
11.98,-0.072030,-0.129530,9.884814
11.99,-0.157066,-0.017593,9.770101
12.00,-0.045111,-0.083968,9.748526
12.01,0.044819,-0.219620,9.846406
12.02,-0.161757,0.007399,9.717977
12.03,-0.070661,-0.076540,9.782536
12.04,-0.019084,-0.001190,9.831101
12.05,-0.112910,0.057856,9.814769
12.06,0.018150,0.002883,9.931076
12.07,-0.126459,0.015850,9.786020
12.08,-0.102680,-0.074357,9.614212
12.09,-0.174009,0.057127,9.694029
12.10,-0.085497,-0.009092,9.862211
12.11,-0.096337,-0.148303,9.806688
12.12,-0.046545,0.083215,9.743066
12.13,-0.149035,0.113102,10.063933
12.14,-0.153303,0.146335,9.952306
12.15,-0.062231,0.206834,9.864920
12.16,0.012176,0.100303,9.895414
12.17,-0.049528,0.084711,9.846881
12.18,0.047814,0.135997,9.749312
12.19,-0.055565,-0.017308,9.979054
12.20,-0.058338,-0.075241,9.962391
12.21,-0.045310,0.025098,9.680790
12.22,0.019747,0.170047,9.902421
12.23,0.000164,0.019446,9.914703
12.24,-0.185049,0.113897,9.850077
12.25,-0.033511,0.126665,10.093196
12.26,-0.075512,0.104325,10.083551
12.27,-0.111331,-0.013622,9.848121
12.28,-0.236595,0.119623,9.864774
12.29,-0.216813,0.061907,9.854201
12.30,-0.121486,0.235083,9.828254
12.31,-0.208114,0.192820,9.798459
12.32,-0.116956,0.073767,9.942357
12.33,-0.030710,0.248510,10.088939
12.34,-0.132632,0.137103,10.048915
12.35,-0.077673,-0.022000,9.973923
12.36,-0.168040,0.107356,9.655381
12.37,-0.056537,0.246093,9.710712
12.38,-0.037687,0.051092,10.004646
12.39,-0.189979,0.112383,10.061217
12.40,-0.134010,0.009969,9.955691
12.41,-0.172859,0.023331,9.870784
12.42,-0.028290,0.053097,10.037585
12.43,-0.053365,0.021806,9.978714
12.44,-0.067842,0.070445,10.018087
12.45,-0.071431,0.258627,9.719660
12.46,-0.032572,0.116084,9.940613
12.47,-0.028131,0.180967,10.084685
12.48,-0.092299,0.204358,9.960910
12.49,-0.100532,0.027018,10.003913
12.50,-0.051376,0.047589,9.913637
12.51,-0.058751,0.173553,9.921506
12.52,0.124418,0.059486,10.052037
12.53,-0.067964,0.163905,9.845678
12.54,-0.010850,0.239606,9.836753
12.55,0.006520,-0.013749,9.866542
12.56,0.084594,0.071171,9.917542
12.57,-0.089004,0.080699,9.755010
12.58,0.086430,0.051083,9.989933
12.59,-0.029141,0.040990,9.901198
12.60,0.186171,0.046506,10.003774
12.61,0.018501,0.080722,9.707268
12.62,-0.105379,0.091027,10.005684
12.63,-0.019387,0.149839,10.054364
12.64,0.106742,0.067133,9.965260
12.65,0.009819,0.154026,9.925125
12.66,0.001977,0.012523,10.009348
12.67,0.067710,-0.041074,10.050663
12.68,-0.013979,0.025708,9.976491
12.69,0.000177,0.082035,9.984629
12.70,-0.055144,0.108726,10.091212
12.71,0.162106,0.151476,10.002274
12.72,-0.070667,0.052569,9.846759
12.73,0.044008,0.084229,10.054064
12.74,0.072115,0.128073,9.915629
12.75,0.035864,-0.049224,9.931918
12.76,-0.060164,-0.009179,9.939853
12.77,-0.036616,0.223806,10.026615
12.78,0.088175,0.065141,10.105163
12.79,-0.012983,0.031989,9.933257
12.80,-0.113380,0.057151,10.104466
12.81,0.086252,-0.126646,9.948310
12.82,-0.011660,-0.076944,10.072567
12.83,0.111413,-0.111535,9.952680
12.84,0.047490,-0.002351,9.884068
12.85,0.046262,-0.070570,10.125981
12.86,0.072975,-0.038549,9.875431
12.87,-0.019817,-0.076091,9.869175
12.88,0.007607,-0.186244,9.809475
12.89,0.055143,0.009862,10.062217
12.90,-0.013408,-0.206588,10.086233
12.91,0.137355,-0.128361,9.973587
12.92,0.057672,-0.179778,9.838261
12.93,-0.031777,-0.149153,9.936331
12.94,0.041271,-0.066693,9.907096
12.95,0.095801,0.012067,9.834648
12.96,0.053625,-0.215326,9.889130
12.97,0.122799,-0.138544,9.988906
12.98,0.138129,-0.237214,9.878115
12.99,0.285624,-0.148842,9.968094
13.00,0.186710,-0.097565,9.761565
13.01,-0.035193,-0.044640,10.107379
13.02,0.067841,-0.277958,9.900573
13.03,0.076156,-0.066668,10.026979
13.04,0.144204,-0.190529,9.959052
13.05,0.024106,-0.211782,9.980651
13.06,0.056769,-0.110616,9.827408
13.07,0.000074,-0.067128,9.864745
13.08,0.051684,-0.126373,9.867198
13.09,0.054788,-0.206576,9.943689
13.10,0.074945,-0.127742,10.073929
13.11,0.004945,-0.177964,9.984788
13.12,0.178189,-0.071661,9.851565
13.13,0.137047,-0.033736,9.950459
13.14,-0.017113,-0.038377,9.933777
13.15,0.100277,-0.120153,9.906858
13.16,-0.027732,-0.027789,9.940495
13.17,0.204041,-0.198062,10.018490
13.18,0.224846,0.027708,9.870198
13.19,0.090201,-0.195343,9.907662
13.20,0.025278,-0.273683,10.040513
13.21,0.039066,0.000138,9.989236
13.22,0.054516,-0.163501,10.070280
13.23,0.080768,-0.094720,10.085972
13.24,0.197345,-0.183675,9.806342
13.25,0.162443,0.090941,9.971223
13.26,0.161861,0.050867,9.891586
13.27,0.095912,0.032314,9.822487
13.28,-0.012037,-0.080680,9.863408
13.29,0.016538,-0.005448,9.912208
13.30,0.080798,-0.084126,9.912781
13.31,-0.022441,0.014084,9.881483
13.32,0.095584,-0.104192,9.940737
13.33,0.133209,0.059933,10.186685
13.34,0.109878,-0.099074,9.769408
13.35,0.104038,-0.085216,10.055549
13.36,-0.088383,-0.089864,9.939885
13.37,0.164812,-0.032144,9.897817
13.38,-0.070093,-0.073493,9.739657
13.39,0.040166,0.001734,10.017619
13.40,0.098895,-0.070456,9.797102
13.41,0.075066,0.036623,10.023835
13.42,-0.058938,0.100222,10.115017
13.43,-0.047717,-0.009606,9.812433
13.44,0.059926,0.167127,10.057371
13.45,0.074596,0.085356,9.942892
13.46,-0.058121,0.171715,9.730733
13.47,0.058554,0.001262,9.819468
13.48,-0.097417,-0.121271,9.957562
13.49,0.070386,-0.039381,9.979639
13.50,-0.053667,-0.025793,9.781224
13.51,0.020067,-0.048324,9.942230
13.52,0.003203,-0.142432,10.021173
13.53,0.099604,0.120464,10.038426
13.54,0.022671,-0.105138,9.897028
13.55,-0.048083,0.123052,9.981895
13.56,0.025158,0.228563,10.045021
13.57,0.164333,-0.003684,10.022745
13.58,0.048707,0.094328,10.026359
13.59,-0.018666,0.036039,9.948274
13.60,-0.084034,0.138560,9.927174
13.61,-0.070057,-0.018847,9.963533
13.62,0.030294,0.070313,9.859634
13.63,-0.098308,0.174531,10.046903
13.64,-0.030535,0.084730,9.782330
13.65,0.080990,-0.038035,9.884610
13.66,-0.025217,0.195009,9.931082
13.67,-0.126763,-0.004781,9.981333
13.68,0.130660,0.108208,9.999772
13.69,0.094344,0.151319,10.082565
13.70,-0.009586,0.116873,9.941084
13.71,0.049411,0.312632,9.861148
13.72,-0.076914,0.170463,9.918075
13.73,-0.000438,0.097457,9.900266
13.74,-0.095048,0.163505,9.983821
13.75,-0.172295,0.133492,9.824745
13.76,0.140872,0.121406,9.913514
13.77,-0.181547,0.138271,10.092932
13.78,-0.047678,0.084702,9.948254
13.79,-0.050986,0.136872,9.824575
13.80,-0.034861,0.079559,9.895485
13.81,-0.085510,-0.031792,9.705756
13.82,-0.086776,0.210774,9.922756
13.83,-0.071368,0.073724,10.092993
13.84,-0.045958,0.129423,9.809145
13.85,-0.086298,0.056182,9.781777
13.86,-0.093325,0.057254,9.861628
13.87,-0.195142,0.030968,10.018655
13.88,0.070150,0.188125,10.096554
13.89,-0.049471,0.205377,9.970474
13.90,-0.076886,0.109980,9.796622
13.91,-0.144717,0.062452,9.922549
13.92,-0.176096,-0.032803,10.103269
13.93,-0.027941,0.163318,9.892788
13.94,-0.110346,0.042391,9.937476
13.95,-0.048572,0.003764,9.947032
13.96,-0.207013,0.091919,9.767935
13.97,0.024442,0.059093,10.021860
13.98,-0.027543,-0.039558,10.006983
13.99,-0.106366,-0.032679,9.721793
14.00,-0.062580,0.100430,9.787620
14.01,-0.040699,0.016625,9.823252
14.02,-0.206807,0.105330,9.994592
14.03,0.034627,0.071524,9.844180
14.04,-0.060570,0.138772,9.958960
14.05,-0.155073,-0.016552,9.900179
14.06,-0.185867,0.063583,9.925005
14.07,-0.018450,0.090879,9.967011
14.08,-0.079687,-0.015513,9.944181
14.09,-0.057018,0.119456,9.914580
14.10,-0.092425,-0.109389,9.948714
14.11,-0.173597,-0.048139,9.937232
14.12,-0.051396,-0.123255,9.894096
14.13,-0.106486,-0.051313,9.871468
14.14,-0.090908,-0.010309,10.102164
14.15,0.102604,0.063075,9.869378
14.16,-0.016309,-0.021365,10.049877
14.17,-0.009869,-0.062049,9.844195
14.18,0.135556,-0.143804,9.993255
14.19,-0.049298,-0.122406,10.090145
14.20,-0.068370,-0.005807,9.877550
14.21,-0.130072,0.034605,9.844095
14.22,-0.109638,-0.074662,9.867445
14.23,-0.234813,0.050632,9.907966
14.24,-0.005337,-0.127271,9.941627
14.25,-0.167369,-0.087442,9.904978
14.26,0.008839,-0.085492,9.866519
14.27,-0.064112,0.056678,10.103513
14.28,-0.047643,-0.059518,9.887558
14.29,-0.058425,-0.218473,9.845136
14.30,0.058768,-0.002697,9.989745
14.31,0.047618,0.064779,9.990886
14.32,-0.048411,-0.106765,10.047043
14.33,-0.114926,-0.162260,10.098135
14.34,0.034050,-0.024870,9.939532
14.35,-0.114634,0.059811,9.875638
14.36,-0.157821,-0.032545,9.713802
14.37,0.009713,-0.233185,9.809805
14.38,0.070637,-0.045652,9.924014
14.39,-0.055904,-0.076147,9.784634
14.40,0.012238,-0.187080,9.743790
14.41,-0.049979,-0.009592,9.908462
14.42,0.044454,-0.079375,9.979136
14.43,0.077735,-0.010742,9.876397
14.44,-0.027444,-0.202097,9.990313
14.45,-0.085158,-0.086255,9.961886
14.46,-0.116037,-0.190473,10.014750
14.47,0.078066,-0.099482,10.116777
14.48,-0.083419,-0.001258,10.160451
14.49,0.040778,-0.233388,9.971842
14.50,0.076738,-0.228317,9.852334
14.51,-0.022001,-0.041545,9.904170
14.52,0.008407,-0.117941,10.055013
14.53,0.105292,-0.021551,9.808116
14.54,-0.035529,-0.177856,10.042029
14.55,-0.039759,-0.106735,9.880199
14.56,0.018343,-0.052825,9.919984
14.57,0.143659,-0.087532,9.816799
14.58,0.174956,-0.243278,9.765795
14.59,0.043318,0.130524,9.871305
14.60,-0.000042,-0.072586,10.031089
14.61,0.148511,-0.190167,9.832973
14.62,-0.062771,-0.050116,10.067845
14.63,0.099134,-0.032060,9.854097
14.64,0.085779,0.023302,9.811121
14.65,0.204462,0.029615,9.952115
14.66,0.226226,-0.048375,10.006280
14.67,0.055219,-0.153944,9.972263
14.68,0.162694,0.037783,9.987812
14.69,0.125279,-0.111346,10.157239
14.70,0.172403,0.138707,10.036437
14.71,0.273762,0.006701,10.016495
14.72,0.229848,0.142446,9.994180
14.73,0.308308,0.068045,10.286795
14.74,0.409434,0.112648,10.177325
14.75,0.497916,0.121964,10.256314
14.76,0.447186,0.279834,10.472276
14.77,0.484028,0.211671,10.658803
14.78,0.439087,0.363806,10.572352
14.79,0.709406,0.297478,10.633634
14.80,0.677981,0.370820,10.751478
14.81,0.704886,0.437462,10.813672
14.82,0.755197,0.492759,10.930807
14.83,0.829183,0.452360,11.035707
14.84,0.910305,0.627856,11.260429
14.85,0.963517,0.593886,11.250369
14.86,1.057984,0.701287,11.473271
14.87,0.978701,0.696152,11.389548
14.88,1.121858,0.780906,11.411750
14.89,1.079808,0.733890,11.605260
14.90,0.995086,0.732163,11.489324
14.91,0.862115,0.853269,11.464537
14.92,0.988996,0.798278,11.451225
14.93,1.084907,0.967716,11.546964
14.94,0.868355,0.864061,11.366780
14.95,0.900036,0.750723,11.382675
14.96,0.863655,0.810120,11.144144
14.97,0.877883,0.767896,11.177656
14.98,0.719856,0.919365,10.987830
14.99,0.627226,0.876280,10.944865
15.00,0.687011,0.786004,10.845801
15.01,0.526452,0.786734,10.549979
15.02,0.384501,0.725879,10.550936
15.03,0.625794,0.768426,10.545345
15.04,0.502493,0.705845,10.474691
15.05,0.531888,0.683511,10.410141
15.06,0.407558,0.574621,10.225759
15.07,0.352274,0.501674,10.308567
15.08,0.291511,0.567941,10.036595
15.09,0.215051,0.602160,9.908622
15.10,0.242646,0.531039,9.993475
15.11,0.132716,0.535129,10.110547
15.12,0.070021,0.389399,9.857848
15.13,0.110547,0.268680,9.799953
15.14,0.224664,0.247765,9.759543
15.15,0.009292,0.402814,9.993306
15.16,-0.000900,0.119904,9.765884
15.17,0.133951,0.367839,9.958732
15.18,0.045071,0.165158,9.865975
15.19,0.109899,0.364752,9.818050
15.20,0.143959,0.189809,9.792608
15.21,0.096142,0.239552,9.911265
15.22,0.003663,0.360385,9.813958
15.23,0.152341,0.132382,9.888039
15.24,0.104872,0.121459,9.928146
15.25,0.043688,0.085088,9.948959
15.26,0.036030,0.052879,9.980968
15.27,0.064014,0.099722,9.903961
15.28,0.005556,0.075412,9.782507
15.29,-0.103507,0.013954,9.934170
15.30,0.083508,0.091691,9.953338
15.31,0.075280,0.139351,9.869709
15.32,-0.167531,0.026741,9.859242
15.33,0.053944,0.080601,10.135734
15.34,0.150144,0.201383,9.759109
15.35,-0.084051,-0.029396,9.937990
15.36,-0.003168,0.234005,9.993444
15.37,-0.015327,0.020828,9.854942
15.38,0.128604,0.086054,9.872454
15.39,0.081994,0.167485,9.849404
15.40,-0.081397,0.186999,9.889826
15.41,0.012817,0.092860,9.980015
15.42,0.166251,-0.005341,9.870515
15.43,-0.071328,-0.017537,10.201674
15.44,-0.025607,-0.006110,9.845627
15.45,0.013033,0.185749,10.028947
15.46,-0.080152,-0.001378,9.945890
15.47,0.106447,0.049776,9.902655
15.48,-0.075644,-0.065047,10.039202
15.49,-0.152129,-0.079520,9.732445
15.50,-0.086131,0.009608,9.935304
15.51,0.005035,-0.023987,9.821490
15.52,-0.114079,-0.023651,9.849879
15.53,-0.029006,-0.127338,9.845536
15.54,-0.011072,-0.020370,9.797819
15.55,-0.155618,0.104003,9.729316
15.56,-0.106757,-0.093587,9.933833
15.57,-0.036426,0.041099,9.888756
15.58,-0.010757,-0.313132,9.865680
15.59,-0.112580,-0.105382,9.972060
15.60,-0.059779,-0.199150,9.941746
15.61,-0.096993,0.047550,9.870287
15.62,-0.018319,0.014037,10.202489
15.63,-0.037171,-0.143812,9.999628
15.64,-0.110687,-0.042596,10.142749
15.65,-0.044519,0.025865,9.857221
15.66,-0.117691,0.033917,9.924141
15.67,-0.049881,-0.111350,9.775805
15.68,-0.050450,-0.259659,9.867053
15.69,0.099951,-0.158722,9.842180
15.70,-0.118105,-0.029253,10.200609
15.71,-0.103868,0.073851,9.832300
15.72,-0.145597,-0.101724,9.878640
15.73,-0.177584,-0.149037,9.757179
15.74,-0.132502,0.088556,9.956427
15.75,-0.043689,-0.073618,9.813548
15.76,-0.038696,-0.206759,9.995947
15.77,-0.074718,-0.120283,9.725789
15.78,-0.122596,-0.032776,9.892994
15.79,-0.138848,-0.120162,9.721117
15.80,-0.173050,-0.052505,9.857193
15.81,-0.144461,-0.245732,9.878077
15.82,-0.203607,-0.233096,9.847454
15.83,0.008664,-0.177932,9.857901
15.84,0.047160,-0.142250,10.005610
15.85,-0.254411,-0.093238,10.126516
15.86,-0.076011,-0.069040,9.943584
15.87,-0.076828,0.077534,9.824237
15.88,-0.081312,-0.178362,9.917243
15.89,-0.144694,-0.143669,9.876007
15.90,-0.014614,-0.174424,10.000978
15.91,-0.062602,-0.029996,9.941435
15.92,-0.011622,-0.024161,9.755484
15.93,-0.152152,-0.148979,10.023677
15.94,-0.202493,0.054043,10.011192
15.95,-0.055624,-0.165746,10.064641
15.96,-0.165922,-0.024228,9.864129
15.97,-0.002883,0.012377,9.946509
15.98,-0.255640,-0.210055,9.798578
15.99,-0.121151,-0.051850,9.912580
16.00,-0.131000,-0.312790,9.958056
16.01,-0.106276,-0.025375,9.855408
16.02,-0.056663,-0.175775,9.953909
16.03,-0.043625,-0.038398,9.937141
16.04,-0.021827,-0.019370,9.876026
16.05,-0.010202,0.014036,10.061430
16.06,-0.081834,-0.000004,9.898916
16.07,0.103155,-0.062247,9.936325
16.08,0.048074,-0.092513,9.777034
16.09,-0.085128,-0.063252,9.976331
16.10,-0.068324,-0.141686,9.877414
16.11,-0.081153,-0.064336,10.021518
16.12,-0.022517,-0.065552,9.795380
16.13,-0.126345,-0.100161,9.970265
16.14,-0.108704,-0.171127,9.709693
16.15,-0.215827,-0.128648,9.990191
16.16,-0.071177,-0.273108,9.911832
16.17,0.049098,-0.040291,9.969959
16.18,-0.045007,0.018651,9.870721
16.19,-0.037249,-0.219301,9.836524
16.20,-0.003985,0.019744,9.888721
16.21,-0.103067,-0.003490,9.952093
16.22,-0.017488,-0.082344,9.991271
16.23,0.055115,-0.017237,9.964722
16.24,0.011834,0.106750,9.841388
16.25,0.068997,-0.049870,10.119559
16.26,0.095320,0.039693,9.969801
16.27,0.050649,0.066363,9.875014
16.28,-0.055972,-0.021973,9.980404
16.29,-0.022979,0.129542,9.964313
16.30,0.162519,0.086161,9.921914
16.31,0.036573,0.038561,9.910903
16.32,0.029342,0.252510,10.039404
16.33,-0.050524,0.149060,10.114438
16.34,0.014342,-0.062379,9.738789
16.35,0.082329,0.045689,10.066179
16.36,0.029537,0.278299,9.945856
16.37,-0.009905,0.006369,9.968269
16.38,0.011913,0.094047,10.080501
16.39,0.133467,0.190831,9.680592
16.40,0.094715,0.147953,10.028289
16.41,0.087138,0.162700,10.075796
16.42,0.082754,0.160996,9.879420
16.43,-0.044146,0.106812,9.809621
16.44,0.075236,0.043967,10.113743
16.45,0.141777,0.144479,9.774844
16.46,0.038284,0.079591,9.993081
16.47,0.140102,0.075185,10.054257
16.48,0.108202,0.233931,9.992336
16.49,0.133397,0.086252,10.009867
16.50,0.073777,0.254375,9.927629
16.51,0.143065,0.139330,10.001128
16.52,-0.042687,0.106712,9.884732
16.53,0.079400,-0.025558,9.898405
16.54,0.135959,0.289587,9.960573
16.55,0.104697,0.119420,9.803751
16.56,0.170621,-0.062118,10.016153
16.57,0.072282,0.197958,9.711087
16.58,0.042831,0.114070,9.996152
16.59,-0.042824,0.042476,10.006264
16.60,0.068033,0.190127,9.881828
16.61,0.132682,-0.089858,9.838583
16.62,0.153566,0.055080,9.921860
16.63,-0.018008,0.086187,10.027339
16.64,0.189082,0.176014,9.998631
16.65,0.018119,0.284533,9.853595
16.66,0.087282,0.082983,9.975999
16.67,0.052254,0.136395,9.992306
16.68,0.131808,0.316297,9.988743
16.69,0.106506,0.093429,9.868798
16.70,0.153650,0.126933,9.983694
16.71,0.247232,-0.013271,10.060561
16.72,0.131751,0.238510,10.023140
16.73,0.053865,0.020626,10.011246
16.74,0.136841,0.094873,10.135014
16.75,0.255404,0.088176,9.988169
16.76,0.152018,0.071209,9.887838
16.77,0.174766,0.024926,9.888788
16.78,-0.028895,0.074140,9.990893
16.79,0.128905,0.190470,9.830158
16.80,0.075759,0.227301,9.943432
16.81,0.041921,0.025663,10.021559
16.82,0.093561,-0.001517,10.092861
16.83,0.102938,-0.035568,9.821945
16.84,0.043085,0.238656,9.986848
16.85,0.106791,0.028654,9.970704
16.86,0.076403,0.102094,9.981859
16.87,0.144937,0.063139,9.992839
16.88,0.105303,0.178579,9.976084
16.89,0.115421,-0.023412,10.119033
16.90,0.161847,-0.097658,10.104766
16.91,0.125941,0.134187,10.195242
16.92,0.079009,0.052249,9.980397
16.93,-0.089602,0.011084,9.940918
16.94,0.116215,0.092046,9.885736
16.95,-0.000163,0.005011,9.931087
16.96,0.063479,0.084327,10.054998
16.97,0.097565,-0.026661,10.070896
16.98,0.171946,0.020742,10.052090
16.99,0.210034,-0.014220,9.918579
17.00,-0.013779,-0.087153,9.919597
17.01,-0.048153,-0.082232,10.181622
17.02,0.080303,-0.101762,9.903239
17.03,0.070705,-0.053478,10.128544
17.04,-0.047835,-0.115408,10.027795
17.05,0.043933,-0.048133,9.914514
17.06,0.089956,-0.054739,9.869753
17.07,-0.059417,-0.074182,9.919729
17.08,-0.043777,-0.076306,10.030794
17.09,-0.018990,-0.142715,9.898468
17.10,0.012275,-0.123090,10.145264
17.11,0.081452,-0.237080,9.969419
17.12,-0.003536,-0.115701,10.060622
17.13,0.023628,-0.187435,10.052912
17.14,0.195495,-0.102811,10.153484
17.15,-0.064125,-0.169955,9.947840
17.16,-0.043296,-0.278609,10.002579
17.17,0.059744,0.064123,9.852155
17.18,0.081088,-0.135861,10.002923
17.19,0.031773,-0.002609,10.106912
17.20,0.139852,-0.161311,10.015151
17.21,0.017083,0.016170,10.224753
17.22,-0.169840,-0.212091,10.045729
17.23,-0.007416,-0.105897,9.939978
17.24,-0.064260,-0.207133,10.039846
17.25,0.088740,0.088790,9.848170
17.26,0.051847,-0.138479,9.914840
17.27,-0.155826,-0.051281,9.873254
17.28,0.076082,-0.080282,9.996773
17.29,0.039951,-0.116897,9.989305
17.30,-0.064368,-0.071724,10.116052
17.31,-0.047854,-0.002455,9.985806
17.32,0.066678,-0.055546,9.895622
17.33,-0.205481,-0.093590,10.151955
17.34,-0.015135,-0.062401,9.701697
17.35,0.033759,0.052115,10.000133
17.36,-0.063693,-0.131362,10.018161
17.37,-0.007578,-0.243051,9.995474
17.38,-0.053902,-0.178983,10.046602
17.39,-0.127547,-0.169365,10.007739
17.40,-0.132138,-0.154244,10.046702
17.41,-0.012973,-0.147465,9.936567
17.42,-0.123212,-0.077404,9.850925
17.43,-0.196664,-0.051367,9.992223
17.44,-0.067158,-0.047722,9.894222
17.45,-0.120157,-0.120432,9.924025
17.46,-0.177105,0.022278,10.113017
17.47,-0.077406,-0.009582,10.152646
17.48,-0.023634,0.079173,10.111082
17.49,-0.085172,0.025515,10.092502
17.50,-0.173748,-0.064994,10.002698
17.51,-0.051464,0.072680,10.098174
17.52,-0.008647,-0.004533,10.032104
17.53,0.084240,0.042814,10.191192
17.54,0.021314,0.042049,9.904519
17.55,-0.175582,-0.020059,10.063464
17.56,-0.027513,0.003641,9.869634
17.57,-0.076528,-0.009627,10.063745
17.58,-0.189993,-0.061852,9.823833
17.59,-0.075780,-0.159704,9.874209
17.60,0.054470,-0.038171,9.867107
17.61,-0.003777,0.038693,10.020375
17.62,-0.180826,0.114985,10.030394
17.63,-0.098837,0.097137,10.239754
17.64,-0.060666,0.016337,9.985329
17.65,-0.238338,-0.010540,10.071450
17.66,-0.235407,0.034559,10.010006
17.67,-0.087109,-0.024080,10.062519
17.68,-0.085654,-0.110442,10.007692
17.69,-0.245644,-0.060097,10.102969
17.70,-0.066853,0.178095,9.887408
17.71,-0.010169,0.221157,9.747582
17.72,-0.113710,0.137195,10.033709
17.73,-0.090466,0.076371,9.811087
17.74,-0.048429,-0.026442,10.122380
17.75,-0.057798,0.075901,9.935992
17.76,-0.225078,0.141347,9.886563
17.77,-0.162556,0.162203,10.260008
17.78,-0.120265,0.154130,9.987665
17.79,-0.155808,0.198794,9.968040
17.80,0.032174,0.260254,10.063374
17.81,-0.032564,0.074985,10.069635
17.82,-0.170140,0.334155,10.101498
17.83,-0.096452,-0.049753,9.853771
17.84,0.013279,0.051455,10.040147
17.85,-0.126608,0.131359,9.956672
17.86,-0.004448,0.160678,9.893327
17.87,0.040500,0.103378,9.989667
17.88,0.029642,0.079153,9.803142
17.89,-0.050631,0.295680,10.075956
17.90,0.037682,0.076401,9.953977
17.91,-0.101440,0.038496,9.934662
17.92,0.142021,0.255228,9.967997
17.93,-0.034699,0.187566,9.964353
17.94,0.040725,0.206643,10.094498
17.95,-0.076964,0.133933,9.870170
17.96,-0.004971,0.007155,9.940820
17.97,0.001696,0.122755,9.956673
17.98,-0.112879,-0.006563,9.871091
17.99,-0.111971,0.132273,9.992809
18.00,-0.048303,0.163345,9.903760
18.01,0.059919,0.195143,9.834993
18.02,-0.171487,0.099635,10.027334
18.03,-0.050346,0.164707,10.128759
18.04,0.087276,0.030343,9.978248
18.05,-0.112092,0.177781,9.962537
18.06,0.091024,0.152284,9.960011
18.07,-0.094968,0.032304,9.920652
18.08,-0.073128,0.136981,10.089329
18.09,-0.006138,0.180271,9.982200
18.10,0.161600,0.098348,9.755965
18.11,-0.032593,0.025762,10.095521
18.12,-0.112154,0.105968,10.073829
18.13,-0.076582,0.136954,10.042773
18.14,0.120685,0.028353,9.712988
18.15,-0.049946,0.017297,9.996378
18.16,0.167830,0.144127,10.096954
18.17,0.095115,0.174269,10.059939
18.18,0.106399,0.288092,10.061045
18.19,0.155251,0.178956,10.153564
18.20,0.093220,0.040602,10.107184
18.21,0.197758,0.314335,10.249423
18.22,0.124527,0.251688,10.188376
18.23,0.365059,0.025406,10.231550
18.24,0.216086,0.124390,10.372192
18.25,0.378335,0.190916,10.311461
18.26,0.308978,0.323098,10.318676
18.27,0.400800,0.093760,10.514178
18.28,0.467833,0.304717,10.665743
18.29,0.792375,0.408661,10.798414
18.30,0.609784,0.152847,10.902713
18.31,0.602204,0.473779,10.908959
18.32,0.688121,0.518453,11.004849
18.33,0.656632,0.416496,11.066115
18.34,0.813626,0.426597,11.247871
18.35,1.019484,0.483406,11.147537
18.36,0.936990,0.370424,11.390996
18.37,1.014029,0.587547,11.736419
18.38,0.892703,0.657701,11.347218
18.39,0.964425,0.565543,11.541163
18.40,1.003252,0.759755,11.571795
18.41,0.926082,0.704591,11.573486
18.42,1.004324,0.726708,11.395659
18.43,1.001218,0.678124,11.495088
18.44,0.967151,0.768800,11.324708
18.45,0.876301,0.806318,11.155691
18.46,0.934266,0.658898,11.302241
18.47,0.780070,0.735696,11.173312
18.48,0.722754,0.715061,10.904217
18.49,0.813492,0.660767,10.837697
18.50,0.555858,0.731560,10.725241
18.51,0.454297,0.505891,10.512507
18.52,0.468131,0.494045,10.651305
18.53,0.517353,0.427138,10.559518
18.54,0.540413,0.507228,10.358241
18.55,0.339346,0.386403,10.308984
18.56,0.495355,0.311178,10.252276
18.57,0.314098,0.458771,10.203006
18.58,0.268313,0.430144,9.990065
18.59,0.179057,0.220014,10.127909
18.60,0.376394,0.099520,9.923095
18.61,0.185028,0.322619,10.076935
18.62,0.070522,0.178119,9.876221
18.63,0.356679,0.143541,9.831556
18.64,0.177170,0.090340,9.941787
18.65,0.197485,-0.007323,9.926008
18.66,0.257971,0.001120,9.930698
18.67,0.164128,0.068562,9.822548
18.68,0.185858,-0.038697,9.925353
18.69,0.106226,0.016997,9.929373
18.70,0.155483,-0.028975,10.011874
18.71,0.089655,-0.124812,9.910203
18.72,0.086910,0.081226,9.828721
18.73,0.094642,-0.007310,9.751321
18.74,0.050148,-0.033092,9.730658
18.75,0.119271,-0.018372,9.913840
18.76,0.116228,-0.208122,9.958858
18.77,0.138830,-0.104907,9.788604
18.78,0.121758,-0.187390,9.901299
18.79,0.227871,-0.054111,9.856534
18.80,0.149339,-0.036140,9.943987
18.81,0.045779,-0.048388,9.956983
18.82,0.095793,0.037657,9.641973
18.83,0.169702,-0.172888,9.970027
18.84,-0.022224,-0.113118,9.890249
18.85,0.211946,-0.011780,9.810105
18.86,-0.014184,-0.019291,9.811100
18.87,0.116736,-0.140892,9.862819
18.88,0.042119,0.064999,9.807461
18.89,0.034346,0.097819,9.762321
18.90,-0.069027,0.013612,9.783419
18.91,0.104550,-0.135863,9.748353
18.92,-0.074413,0.003008,9.985191
18.93,-0.090094,0.022874,9.854282
18.94,0.114746,-0.020654,10.072126
18.95,0.161755,0.114334,9.882094
18.96,-0.038200,0.002738,9.902015
18.97,0.092005,0.185818,9.735095
18.98,0.072040,0.085516,9.817561
18.99,-0.002452,0.050320,9.844770
19.00,0.108281,0.107179,9.771891
19.01,-0.015129,0.161259,9.787244
19.02,0.035910,0.115875,9.873842
19.03,-0.109241,0.042955,9.873901
19.04,-0.109258,0.001198,9.694323
19.05,0.077727,-0.030921,9.854479
19.06,0.024898,-0.131678,9.879489
19.07,-0.033975,0.082118,9.763238
19.08,0.126697,0.041621,9.751148
19.09,0.122534,0.050208,9.862556
19.10,0.002595,0.163388,9.559165
19.11,-0.152238,0.076084,9.814743
19.12,-0.047919,0.240451,9.976035
19.13,-0.108756,0.046599,9.551009
19.14,-0.038096,0.018182,9.890982
19.15,-0.123215,-0.001544,9.861183
19.16,-0.147005,0.159888,9.660974
19.17,-0.235251,0.196973,9.854873
19.18,-0.043732,0.059868,9.901003
19.19,-0.243816,0.024640,9.681233
19.20,-0.088264,0.234290,9.726204
19.21,-0.009749,-0.002291,9.797566
19.22,-0.125646,0.196193,9.890749
19.23,-0.157161,0.071088,9.736895
19.24,-0.078215,0.149680,9.784820
19.25,-0.141402,0.204964,9.720561
19.26,-0.062497,0.157559,9.787525
19.27,-0.162119,0.096234,9.887755
19.28,-0.089901,0.231687,9.791693
19.29,-0.111207,0.143020,9.743372
19.30,-0.086267,0.414132,9.773857
19.31,0.043718,-0.017493,9.695083
19.32,-0.072755,-0.019536,9.673719
19.33,-0.049925,0.196489,9.891512
19.34,-0.141696,0.113052,9.932953
19.35,-0.075174,0.177402,9.588042
19.36,-0.116230,0.024284,9.823418
19.37,-0.092972,0.114410,9.849110
19.38,-0.044414,0.144359,9.640060
19.39,-0.137218,0.061743,9.712066
19.40,-0.129797,0.121032,9.699550
19.41,-0.137504,-0.009406,9.945363
19.42,-0.139567,0.127922,9.918529
19.43,-0.085652,0.208590,9.659182
19.44,-0.128911,-0.009629,9.603392
19.45,0.019881,-0.018225,9.824634
19.46,0.114334,0.176860,9.799751
19.47,-0.145358,-0.027702,9.867778
19.48,-0.076208,0.140516,9.635496
19.49,-0.016373,0.073262,9.811784
19.50,-0.120240,0.030829,9.664283
19.51,-0.177981,0.176862,9.797806
19.52,0.041293,0.128952,9.729812
19.53,-0.042082,0.072123,9.921622
19.54,-0.070578,-0.127527,9.774340
19.55,0.020984,0.096513,9.696244
19.56,-0.032310,-0.051373,9.739483
19.57,-0.096521,0.011277,9.713687
19.58,-0.169465,0.024204,9.606348
19.59,-0.129339,0.169980,9.912338
19.60,0.008082,-0.007519,9.877782
19.61,-0.032063,-0.106566,9.698345
19.62,-0.099786,0.119328,9.784033
19.63,0.058352,0.054312,9.917261
19.64,-0.093573,0.051796,9.833887
19.65,0.000081,0.104355,9.677541
19.66,-0.059148,0.117693,9.697573
19.67,0.080145,-0.096905,9.532708
19.68,-0.011898,-0.142195,9.780037
19.69,-0.066013,0.031198,9.824949
19.70,-0.081491,-0.062404,9.823744
19.71,-0.065817,-0.060270,9.766993
19.72,-0.119943,-0.141284,9.730245
19.73,-0.168497,-0.009753,9.593356
19.74,-0.031641,-0.029090,9.723242
19.75,-0.096133,-0.078367,9.626244
19.76,-0.093394,-0.181523,9.740075
19.77,-0.054595,0.021897,9.609323
19.78,-0.040241,-0.058601,9.735751
19.79,-0.040706,0.006314,9.814349
19.80,0.100938,-0.255236,9.717926
19.81,0.018082,-0.086147,9.711238
19.82,0.136975,-0.151553,9.767883
19.83,-0.063473,-0.094619,9.851810
19.84,0.037674,-0.025158,9.662252
19.85,-0.052336,-0.073912,9.723295
19.86,-0.063168,-0.104733,9.820536
19.87,0.156774,-0.107611,9.734570
19.88,-0.072896,-0.235638,9.465640
19.89,-0.186543,-0.185372,9.592561
19.90,-0.061192,-0.024897,9.737480
19.91,-0.161768,-0.156554,9.620622
19.92,-0.073752,-0.026145,9.802946
19.93,-0.062887,-0.052289,9.842983
19.94,0.012075,-0.048834,9.596456
19.95,-0.151281,-0.093058,9.550529
19.96,0.111783,-0.154840,9.615970
19.97,-0.130555,-0.132068,9.608515
19.98,0.012664,-0.068510,9.802343
19.99,0.000301,-0.289302,9.543539
20.00,0.095580,-0.019012,9.719663
20.01,0.060959,-0.157536,9.782562
20.02,0.131029,-0.123194,9.724069
20.03,0.010364,-0.121025,9.684171
20.04,0.005254,-0.116277,9.622694
20.05,0.078560,-0.216223,9.822213
20.06,0.130922,-0.096801,9.611201
20.07,0.117582,-0.058968,9.728977
20.08,0.080251,-0.267427,9.616708
20.09,0.075983,-0.205070,9.446856
20.10,0.057263,-0.026261,9.602518
20.11,0.095684,-0.037863,9.612321
20.12,0.228333,-0.067266,9.612089
20.13,0.048703,-0.142063,9.558888
20.14,0.041439,-0.026385,9.685999
20.15,0.037718,-0.175832,9.695645
20.16,0.106470,-0.086386,9.589881
20.17,-0.092191,-0.175559,9.587580
20.18,0.068878,-0.079490,9.512484
20.19,0.152175,-0.144312,9.641553
20.20,0.041567,0.003363,9.752485
20.21,0.100445,-0.017548,9.751143
20.22,0.255995,-0.092839,9.551968
20.23,0.115413,0.045139,9.809617
20.24,-0.088723,-0.113393,9.572908
20.25,-0.020954,-0.034436,9.506172
20.26,0.073069,-0.075458,9.470235
20.27,0.030044,0.038514,9.497460
20.28,0.103710,0.036039,9.637143
20.29,0.072848,0.094193,9.576716
20.30,0.190559,0.002169,9.537969
20.31,0.010710,-0.235734,9.515152
20.32,0.082043,-0.027935,9.490015
20.33,0.116532,0.137242,9.508389
20.34,0.126832,-0.008517,9.697679
20.35,0.111557,-0.130495,9.775250
20.36,-0.092938,0.064232,9.780224
20.37,0.106660,0.075527,9.661223
20.38,0.087850,-0.019327,9.542107
20.39,0.168833,0.024274,9.523388
20.40,0.157217,-0.018697,9.664632
20.41,0.118203,0.095861,9.563247
20.42,0.123426,0.063439,9.627953
20.43,0.205885,-0.029620,9.778698
20.44,0.188921,0.067477,9.606246
20.45,0.118013,0.014052,9.811271
20.46,0.266593,0.193880,9.469737
20.47,0.043564,0.152630,9.626120
20.48,-0.002267,0.075321,9.611720
20.49,0.090339,0.095378,9.480923
20.50,0.059830,0.173598,9.658496
20.51,-0.109071,0.082015,9.730426
20.52,0.034282,0.159781,9.796642
20.53,0.112172,0.220299,9.616549
20.54,0.078155,0.065620,9.384471
20.55,0.018694,0.239145,9.621257
20.56,0.082113,0.218199,9.646847
20.57,0.086396,0.131780,9.548241
20.58,0.131487,0.078252,9.592396
20.59,0.020603,0.134285,9.521681
20.60,0.139389,0.097224,9.555810
20.61,-0.020298,0.054505,9.670101
20.62,0.024077,0.161403,9.706442
20.63,0.197584,0.037583,9.439673
20.64,-0.023003,0.092774,9.514832
20.65,0.003379,0.093967,9.406355
20.66,-0.047063,0.010667,9.748286
20.67,-0.015953,0.172202,9.650801
20.68,0.058280,0.100643,9.362908
20.69,0.100660,0.221952,9.555856
20.70,0.039519,0.097359,9.533282
20.71,0.011859,0.083044,9.485368
20.72,-0.064808,0.041598,9.663941
20.73,-0.026819,0.115250,9.661019
20.74,-0.095631,0.113624,9.586009
20.75,0.083644,0.167081,9.494300
20.76,0.085842,0.110565,9.494557
20.77,0.014732,0.269960,9.561708
20.78,0.049875,0.135971,9.511052
20.79,0.081230,0.017344,9.555651
20.80,0.015788,0.007189,9.611524
20.81,0.115731,0.132110,9.401864
20.82,-0.081116,0.004092,9.478915
20.83,-0.030561,0.129198,9.550898
20.84,-0.043539,0.149142,9.710352
20.85,0.042214,0.146788,9.637918
20.86,-0.127730,-0.000763,9.552610
20.87,0.099421,0.137908,9.592800
20.88,0.025127,0.085282,9.542036
20.89,0.116834,0.006003,9.659543
20.90,-0.029782,0.036925,9.594847
20.91,-0.073878,0.082318,9.679019
20.92,0.019437,-0.014367,9.415290
20.93,0.046073,0.058372,9.469906
20.94,-0.096722,0.144562,9.577700
20.95,-0.202526,0.100668,9.599329
20.96,-0.191918,0.024683,9.789763
20.97,-0.027949,0.031397,9.368723
20.98,0.071370,-0.035864,9.545975
20.99,-0.158836,-0.039111,9.541292
21.00,-0.079416,-0.126798,9.572686
21.01,-0.088292,0.010771,9.722063
21.02,0.090509,0.039806,9.636217
21.03,0.114920,-0.025906,9.388056
21.04,-0.034382,-0.095826,9.701718
21.05,0.001020,-0.025698,9.698830
21.06,-0.003601,0.071070,9.574469
21.07,-0.177952,0.030361,9.386320
21.08,-0.021864,-0.048955,9.532886
21.09,-0.161441,0.112176,9.594888
21.10,-0.095627,0.159366,9.647655
21.11,0.007342,-0.099737,9.370955
21.12,-0.079196,-0.085661,9.471107
21.13,0.000798,-0.015050,9.657852
21.14,0.014913,-0.147932,9.698276
21.15,-0.231103,-0.011183,9.591219
21.16,-0.266177,-0.075051,9.663099
21.17,-0.000296,-0.057316,9.593874
21.18,0.001738,-0.136778,9.644769
21.19,-0.075005,-0.157264,9.563103
21.20,-0.065119,-0.256391,9.596732
21.21,-0.025902,0.018127,9.426722
21.22,-0.028125,-0.028230,9.621292
21.23,-0.123028,-0.052349,9.424038
21.24,-0.022723,-0.080800,9.621585
21.25,-0.127289,-0.295224,9.505811
21.26,-0.080347,-0.172961,9.586950
21.27,-0.083970,-0.135108,9.454929
21.28,-0.168749,-0.202638,9.500120
21.29,-0.159335,-0.252876,9.587567
21.30,0.079049,-0.196600,9.626507
21.31,-0.170694,-0.115247,9.660772
21.32,-0.069292,-0.115744,9.436721
21.33,-0.051932,-0.047360,9.401965
21.34,-0.101964,0.045080,9.454912
21.35,-0.043100,-0.064875,9.446263
21.36,-0.069579,-0.133288,9.709902
21.37,-0.164481,0.025524,9.687650
21.38,-0.050765,-0.244066,9.454393
21.39,-0.136025,-0.282580,9.725526
21.40,0.048177,-0.185728,9.682999
21.41,-0.055265,-0.048091,9.392459
21.42,-0.144020,-0.097619,9.452880
21.43,-0.058931,-0.199173,9.390476
21.44,-0.158506,-0.164650,9.548257
21.45,-0.061999,-0.203152,9.559184
21.46,-0.098681,-0.200287,9.559538
21.47,-0.144683,0.026198,9.355867
21.48,-0.143503,-0.106076,9.416386
21.49,0.120725,0.050450,9.585709
21.50,-0.064393,-0.158641,9.622514
21.51,-0.103793,-0.044290,9.358922
21.52,-0.115113,-0.061377,9.433415
21.53,-0.026413,-0.004966,9.664408
21.54,-0.112496,-0.050615,9.440384
21.55,-0.146223,0.012339,9.562015
21.56,-0.058413,-0.017481,9.432210
21.57,-0.056117,-0.144337,9.648005
21.58,-0.083319,0.006483,9.363864
21.59,-0.118237,-0.055372,9.535834
21.60,-0.075133,-0.104152,9.661042
21.61,-0.078294,0.018702,9.628758
21.62,-0.086213,0.042184,9.522101
21.63,-0.012199,-0.064884,9.499413
21.64,0.147045,-0.048847,9.546773
21.65,0.078791,-0.126331,9.441922
21.66,0.130939,-0.154266,9.561663
21.67,-0.066465,-0.023779,9.564194
21.68,0.116316,0.064473,9.531517
21.69,0.003934,-0.039252,9.674189
21.70,0.068090,0.126320,9.467960
21.71,0.029238,0.001153,9.405435
21.72,-0.031390,0.006903,9.524219
21.73,0.057086,0.005233,9.590040
21.74,0.041776,0.112205,9.567867
21.75,-0.135021,-0.037788,9.564335
21.76,-0.000052,0.033774,9.467737
21.77,0.083103,0.005375,9.483052
21.78,0.038921,0.009212,9.533416
21.79,0.057682,0.061811,9.526485
21.80,-0.036615,0.054673,9.693979
21.81,0.047342,0.152482,9.611538
21.82,0.022453,0.071959,9.532876
21.83,0.017166,0.121549,9.696631
21.84,-0.017653,0.095146,9.632765
21.85,0.113082,0.197649,9.453401
21.86,0.070696,0.065021,9.266018
21.87,0.065746,0.068951,9.458605
21.88,0.213330,0.156067,9.651779
21.89,0.090219,0.074579,9.682508
21.90,0.151373,0.142982,9.428432
21.91,0.080166,0.293263,9.661444
21.92,0.033072,0.030920,9.658816
21.93,-0.020396,0.234688,9.737464
21.94,0.086703,0.075638,9.694293
21.95,-0.142543,0.224872,9.735845
21.96,0.095619,0.175616,9.651051
21.97,0.102549,0.171725,9.649483
21.98,0.063705,0.114751,9.572346
21.99,0.077924,0.110163,9.690608
22.00,-0.010034,0.076162,9.478431
22.01,0.206361,0.138600,9.601678
22.02,0.074885,0.128139,9.674452
22.03,0.031574,0.163607,9.767573
22.04,0.161769,0.041815,9.587015
22.05,0.137575,0.163852,9.741775
22.06,0.112536,0.271626,9.638520
22.07,0.118866,0.256086,9.773528
22.08,0.172954,0.193899,9.615453
22.09,0.301448,0.410269,9.793915
22.10,0.254990,0.174180,9.743290
22.11,0.241853,0.230546,9.672408
22.12,0.343720,0.140682,9.821035
22.13,0.312513,0.245889,10.021994
22.14,0.381102,0.444914,9.849867
22.15,0.403508,0.298602,9.874090
22.16,0.484562,0.233742,10.141861
22.17,0.450919,0.455902,10.022008
22.18,0.446909,0.449303,10.441453
22.19,0.664005,0.518224,10.540547
22.20,0.766153,0.462860,10.596764
22.21,0.612582,0.441744,10.600490
22.22,0.767185,0.543683,10.876736
22.23,0.767366,0.638662,10.950669
22.24,0.920672,0.623659,10.862939
22.25,0.911537,0.694317,11.151408
22.26,1.193743,0.652210,10.995992
22.27,0.932091,0.758454,11.132769
22.28,1.099923,0.750302,11.021878
22.29,1.119882,0.716404,11.246306
22.30,1.035016,0.802115,11.213426
22.31,0.989424,0.773292,11.189131
22.32,0.979221,0.861809,11.189932
22.33,0.949072,0.885129,11.102427
22.34,1.007624,0.852714,11.101871
22.35,0.808786,0.673534,11.149059
22.36,0.821308,0.713390,10.825836
22.37,0.762298,0.720563,10.920817
22.38,0.593777,0.683670,10.752864
22.39,0.745136,0.675188,10.662721
22.40,0.704770,0.759705,10.516183
22.41,0.512215,0.705017,10.343930
22.42,0.589514,0.575621,10.361160
22.43,0.326395,0.614872,10.275842
22.44,0.403561,0.550077,10.058720
22.45,0.343255,0.476269,9.928055
22.46,0.315652,0.525396,10.002305
22.47,0.274334,0.335379,10.009877
22.48,0.224598,0.347899,9.984048
22.49,0.166689,0.216145,9.961011
22.50,0.159761,0.178078,9.842303
22.51,0.251855,0.109469,9.749911
22.52,0.074168,0.101683,9.752856
22.53,0.281584,0.151835,9.610549
22.54,0.033732,0.088184,9.652574
22.55,0.089502,0.060630,9.704940
22.56,0.103788,0.030789,9.675834
22.57,0.024278,0.171682,9.706174
22.58,0.149188,-0.083403,9.555727
22.59,0.074395,-0.111782,9.575662
22.60,0.007543,-0.097379,9.767003
22.61,0.127578,-0.050802,9.605520
22.62,-0.068796,-0.017150,9.621218
22.63,-0.037738,-0.020270,9.698738
22.64,0.047945,-0.003924,9.596811
22.65,0.062790,-0.096368,9.801466
22.66,0.020443,-0.126263,9.566199
22.67,-0.019407,0.030489,9.693182
22.68,-0.033078,-0.327474,9.619384
22.69,0.073924,-0.103309,9.711118
22.70,-0.000897,-0.076676,9.647036
22.71,-0.093378,0.036819,9.695718
22.72,-0.101401,-0.247260,9.821522
22.73,0.090713,-0.148778,9.631965
22.74,-0.091169,-0.224007,9.632451
22.75,-0.015102,-0.259024,9.671755
22.76,0.067951,-0.130866,9.852064
22.77,0.000098,-0.046818,9.697002
22.78,-0.106976,-0.015600,9.830708
22.79,-0.130657,-0.152918,9.690906
22.80,0.097213,-0.055038,9.828866
22.81,-0.138585,-0.121892,9.751943
22.82,-0.102400,-0.059001,9.767958
22.83,-0.031115,-0.008376,9.570219
22.84,-0.081129,-0.113245,9.556671
22.85,-0.020343,-0.008301,9.823391
22.86,-0.186217,-0.188042,9.823429
22.87,-0.088094,-0.034821,9.961075
22.88,-0.019429,-0.000800,9.571606
22.89,-0.021451,-0.005048,9.770049
22.90,-0.123936,-0.170068,9.620350
22.91,-0.161986,-0.087372,9.649930
22.92,-0.065166,-0.042224,9.675019
22.93,-0.189175,-0.026303,9.764727
22.94,0.016749,-0.047696,9.661331
22.95,-0.075112,0.062270,9.732336
22.96,-0.145058,-0.150705,9.813406
22.97,-0.175174,-0.061163,9.844226
22.98,-0.142850,-0.171766,9.801908
22.99,-0.218442,0.018232,9.779050
23.00,-0.055076,0.018244,9.720909
23.01,-0.159944,0.247161,9.679382
23.02,-0.064686,0.066822,9.791373
23.03,-0.054484,0.016696,9.633571
23.04,-0.020919,0.016073,9.751759
23.05,-0.078645,-0.024145,9.633456
23.06,-0.009250,0.017124,9.738067
23.07,0.011262,0.034271,9.637988
23.08,-0.079208,-0.139549,9.704460
23.09,-0.074503,0.038809,9.678072
23.10,-0.144583,0.036512,9.667156
23.11,-0.178876,0.174068,9.739213
23.12,0.002939,0.028458,9.506699
23.13,-0.050810,-0.017089,9.569954
23.14,-0.043847,0.070706,9.831688
23.15,-0.145456,0.060138,9.767173
23.16,0.032425,0.048594,9.681189
23.17,-0.114950,-0.038549,9.852009
23.18,-0.159865,0.055883,9.691787
23.19,-0.140554,0.026479,9.698813
23.20,0.032206,0.059792,9.679514
23.21,-0.181091,0.139818,9.949576
23.22,-0.150905,0.031248,9.783479
23.23,0.142566,0.071295,9.780586
23.24,-0.012424,0.135888,9.808693
23.25,-0.144640,0.074442,9.577812
23.26,-0.170696,0.307930,9.704704
23.27,-0.216081,0.122096,9.810617
23.28,-0.072483,0.005612,9.765713
23.29,-0.019901,0.040376,9.987662
23.30,0.045564,0.034656,9.714589
23.31,-0.225165,0.045947,9.863406
23.32,-0.177296,0.156771,9.850659
23.33,-0.078363,0.026916,9.785303
23.34,0.156763,0.090322,9.804415
23.35,0.007249,0.209374,9.743899
23.36,-0.031095,0.077260,9.576538
23.37,-0.156137,0.173198,9.809700
23.38,-0.224896,-0.014772,9.818542
23.39,-0.049278,0.090351,9.835172
23.40,-0.057361,0.049006,9.783817
23.41,-0.067803,0.143493,9.875438
23.42,-0.073724,0.036107,9.692680
23.43,-0.100017,0.283590,9.926990
23.44,-0.115172,-0.014253,9.682223
23.45,0.077433,0.206394,9.771084
23.46,-0.101378,0.184184,9.850799
23.47,-0.049238,0.136862,9.732051
23.48,-0.026931,0.114344,9.859272
23.49,0.036068,0.256070,9.750908
23.50,-0.085187,0.302808,9.797806
23.51,0.064620,0.085786,9.768677
23.52,-0.056568,0.112011,9.729895
23.53,-0.019703,0.052009,10.013461
23.54,0.128148,-0.000732,9.705146
23.55,-0.077383,0.126275,9.561268
23.56,0.061282,0.105423,9.710264
23.57,0.087429,-0.047318,9.804495
23.58,0.035295,0.113856,9.754409
23.59,0.004530,0.095740,9.894671
23.60,0.187402,0.020549,9.891740
23.61,0.019630,0.010741,9.762382
23.62,0.040432,0.093246,9.626688
23.63,0.000522,0.183209,9.667275
23.64,0.042837,0.081411,9.793039
23.65,0.111149,0.106915,9.640468
23.66,0.015224,-0.027257,9.760790
23.67,-0.128250,0.000937,9.940338
23.68,0.084654,0.077409,9.833121
23.69,-0.039615,-0.085272,9.804025
23.70,0.109030,0.034551,9.695990
23.71,0.052543,0.051989,9.818841
23.72,0.131004,0.003948,9.775405
23.73,-0.017473,0.027080,9.825701
23.74,0.018347,0.000652,9.875117
23.75,0.036659,-0.059241,9.892780
23.76,-0.052100,-0.109192,9.816407
23.77,0.157937,-0.027612,9.855250
23.78,-0.058551,0.078573,9.753390
23.79,0.161641,0.050817,9.918365
23.80,0.110093,-0.064041,9.716906
23.81,0.062426,-0.070908,9.785372
23.82,0.108046,-0.081913,9.930271
23.83,0.107860,-0.086921,9.758924
23.84,0.052313,-0.033644,9.673482
23.85,0.110005,0.023144,9.766946
23.86,0.146350,0.114909,9.947646
23.87,0.013879,-0.137026,9.581840
23.88,0.118640,-0.022917,9.819584
23.89,-0.117779,-0.035841,9.746366
23.90,-0.060769,-0.109656,9.793415
23.91,0.139922,-0.169231,9.775726
23.92,0.062380,-0.068811,9.907021
23.93,0.028464,0.075250,9.816737
23.94,0.093315,-0.076118,9.912782
23.95,0.066581,-0.163716,9.940505
23.96,0.019752,-0.116203,9.815436
23.97,-0.031817,-0.197501,9.776841
23.98,-0.057799,-0.107249,9.850844
23.99,0.158985,-0.056271,9.870470
24.00,0.066190,-0.168332,9.698438
24.01,0.177543,-0.375115,9.837680
24.02,0.065237,-0.094017,9.789015
24.03,0.127997,-0.157549,9.772624
24.04,0.089199,-0.178489,9.745843
24.05,0.102300,-0.179940,9.752635
24.06,0.105583,-0.087687,9.941032
24.07,0.061761,-0.152598,9.779320
24.08,-0.001790,-0.045536,9.930337
24.09,0.156917,-0.043529,9.829297
24.10,0.222042,-0.140878,9.703147
24.11,0.226115,-0.160148,9.835711
24.12,0.047824,-0.107264,9.698049
24.13,0.032030,-0.127867,9.877753
24.14,0.044830,-0.254947,9.796450
24.15,0.073489,0.040113,9.902926
24.16,0.081638,-0.053899,9.960934
24.17,0.004176,-0.145923,9.644208
24.18,-0.036293,-0.259724,9.771783
24.19,0.084059,-0.118192,9.697098
24.20,-0.204487,-0.147923,10.034008
24.21,0.067683,-0.102645,9.774280
24.22,-0.002146,-0.267618,9.686922
24.23,0.133457,-0.128798,10.042580
24.24,0.152382,-0.120242,9.746044
24.25,0.151715,-0.098853,9.656563
24.26,0.035665,-0.098327,9.702998
24.27,-0.030142,-0.071043,9.833239
24.28,-0.007280,0.050837,9.823568
24.29,0.078044,-0.107543,9.735459
24.30,-0.079551,-0.134580,9.770613
24.31,0.160622,-0.195089,9.824477
24.32,0.019649,-0.092888,9.951603
24.33,0.083020,-0.159085,9.852576
24.34,-0.102653,0.034935,9.762961
24.35,-0.037410,-0.044361,9.796456
24.36,-0.119022,0.043762,9.896284
24.37,0.111851,0.091204,9.987327
24.38,0.014027,-0.089858,9.708860
24.39,0.069204,-0.043000,9.930726
24.40,0.025200,0.096797,9.788024
24.41,0.054209,0.010894,9.656859
24.42,-0.013681,0.042980,9.637032
24.43,-0.006402,0.089398,9.952640
24.44,-0.000901,0.083967,9.964519
24.45,0.035437,0.050536,9.762229
24.46,0.034100,0.134839,9.797871
24.47,0.220991,0.023044,9.640792
24.48,0.127154,0.075373,9.895168
24.49,-0.153116,0.024922,9.816056
24.50,-0.025692,0.125868,9.663591
24.51,-0.050126,-0.006768,9.839211
24.52,0.081365,-0.080371,9.679706
24.53,-0.049670,0.111502,9.874307
24.54,0.009397,-0.017777,9.710179
24.55,-0.218014,-0.021113,9.852063
24.56,-0.155403,0.174068,9.752945
24.57,0.129844,0.154471,9.581564
24.58,-0.036700,0.053901,9.917632
24.59,-0.123728,-0.158374,9.922986
24.60,-0.027500,0.131704,9.765585
24.61,-0.134197,0.145640,9.845073
24.62,-0.075586,0.137384,9.861311
24.63,-0.172026,0.136905,9.864400
24.64,-0.121747,0.087715,9.989765
24.65,-0.094720,0.072163,9.858734
24.66,0.025553,0.019061,9.781134
24.67,-0.029593,0.054089,9.859532
24.68,-0.018169,0.137695,9.773583
24.69,-0.073764,0.140871,9.709856
24.70,-0.008239,0.178644,9.938215
24.71,-0.146226,0.004321,9.869484
24.72,-0.137147,-0.014770,9.629728
24.73,-0.048015,0.088476,9.747343
24.74,-0.104950,0.037891,9.891290
24.75,-0.085623,0.134748,9.658957
24.76,-0.099443,0.015210,9.739856
24.77,0.012271,0.214297,10.081107
24.78,0.014851,0.053740,9.781653
24.79,-0.141168,0.246293,9.922832
24.80,-0.233237,0.159948,9.964409
24.81,-0.150629,0.032462,9.723309
24.82,-0.166616,0.283090,9.840590
24.83,-0.029356,0.135135,10.019628
24.84,-0.023179,0.125336,9.859489
24.85,-0.180111,0.104742,10.049876
24.86,-0.158676,0.144964,9.749422
24.87,-0.217209,0.147128,9.992606
24.88,-0.088593,0.033131,9.814347
24.89,-0.103272,0.082263,9.779713
24.90,-0.036766,0.105412,9.876246
24.91,-0.060223,0.139383,9.800875
24.92,-0.051156,0.137151,9.803342
24.93,-0.223191,0.098563,9.860096
24.94,-0.149677,0.037419,9.630579
24.95,-0.023280,0.029191,9.731263
24.96,-0.141780,-0.022290,9.883168
24.97,-0.228284,0.115995,9.909831
24.98,-0.032707,0.014721,9.846175
24.99,-0.142679,0.043937,9.837813
25.00,-0.010523,0.073451,9.850234
25.01,-0.095929,0.049785,9.905554
25.02,-0.115442,0.043957,9.666925
25.03,0.017093,-0.033149,9.758375
25.04,-0.194763,0.055516,9.801654
25.05,0.025707,0.003668,9.828451
25.06,-0.138552,0.016410,9.597683
25.07,-0.072683,0.110537,9.682684
25.08,-0.070094,0.052866,9.806535
25.09,-0.116076,-0.038709,9.909293
25.10,-0.140844,-0.010458,9.765854
25.11,-0.107335,0.123907,9.740850
25.12,-0.156695,-0.034134,9.860188
25.13,0.083737,-0.011827,9.774297
25.14,-0.109314,0.032671,9.894979
25.15,0.024374,-0.008646,9.784543
25.16,0.016395,-0.061032,9.694942
25.17,-0.034103,-0.095960,9.948314
25.18,-0.071274,-0.042498,9.929773
25.19,-0.042128,0.005836,9.710293
25.20,-0.008999,0.053849,9.845208
25.21,-0.043812,-0.173959,9.772770
25.22,-0.174204,0.079503,9.867146
25.23,-0.191285,-0.089252,9.717475
25.24,0.077997,0.003287,9.892035
25.25,-0.250350,-0.134073,9.924156
25.26,-0.020721,-0.208151,9.709740
25.27,-0.051934,-0.188367,9.811060
25.28,-0.016992,-0.113679,9.925706
25.29,-0.117738,-0.048963,9.703796
25.30,0.004860,-0.091892,9.736876
25.31,-0.003338,-0.117705,9.869762
25.32,0.204460,-0.011337,9.787353
25.33,-0.002604,-0.103501,9.645732
25.34,0.098289,-0.083940,9.771079
25.35,-0.126019,0.140121,9.977590
25.36,0.078935,-0.111615,10.009084
25.37,0.018885,-0.168617,9.738940
25.38,0.025817,-0.076212,9.711177
25.39,0.030373,-0.057460,9.756568
25.40,0.147634,-0.093362,9.982426
25.41,0.034963,-0.105894,9.886317
25.42,-0.044766,-0.000627,9.948393
25.43,-0.027923,-0.011132,9.901734
25.44,0.090085,-0.129335,9.669816
25.45,0.063844,-0.171449,9.706759
25.46,-0.091090,-0.085384,9.731923
25.47,0.075781,-0.171157,9.749245
25.48,-0.048757,-0.047654,9.733519
25.49,0.076067,-0.083541,9.745066
25.50,-0.020311,0.097386,9.865231
25.51,0.024688,0.003140,9.814685
25.52,0.006640,-0.199289,9.923014
25.53,0.174695,-0.152521,9.826156
25.54,0.088224,-0.261928,9.733286
25.55,0.159793,-0.277398,9.819708
25.56,0.293278,-0.094614,9.649686
25.57,0.068088,-0.196234,9.569594
25.58,0.187110,0.033539,9.865066
25.59,0.013520,-0.001828,9.902549
25.60,0.172311,-0.112688,9.807911
25.61,0.009677,-0.113550,9.761555
25.62,0.075074,0.035413,9.666492
25.63,0.121675,0.057794,9.917372
25.64,0.136346,-0.149772,9.849940
25.65,-0.019009,-0.155691,9.829819
25.66,0.015321,-0.090366,9.800241
25.67,0.135386,-0.027127,9.753795
25.68,0.058737,-0.097930,9.689459
25.69,-0.022055,-0.015754,9.826102
25.70,0.085526,0.109108,9.747030
25.71,0.083049,-0.154285,9.758545
25.72,0.107972,-0.072255,9.972791
25.73,0.137298,-0.142282,9.796273
25.74,0.133237,-0.092905,9.555866
25.75,0.035443,-0.044153,9.747705
25.76,0.064827,-0.073314,9.701203
25.77,0.172596,0.031935,9.787532
25.78,0.055480,0.007908,9.659124
25.79,0.067771,0.025256,9.845052
25.80,-0.020638,-0.017701,9.772212
25.81,0.097616,-0.004847,9.754385
25.82,0.127619,-0.010274,9.817065
25.83,-0.058075,0.003311,9.794592
25.84,0.014193,0.062099,9.788950
25.85,-0.014197,-0.119988,9.780174
25.86,0.162220,0.062170,9.800741
25.87,-0.054345,-0.025204,9.837279
25.88,0.091722,0.022253,9.824957
25.89,0.154703,-0.070598,9.916054
25.90,0.111440,0.030480,9.748912
25.91,0.060244,0.086129,9.827618
25.92,0.122069,0.105055,10.048649
25.93,0.176109,-0.021973,9.800186
25.94,0.083230,0.109934,9.804314
25.95,-0.088698,0.172539,9.678454
25.96,0.180705,0.045820,9.733741
25.97,0.119272,0.089168,9.794704
25.98,0.082864,-0.072796,9.858974
25.99,-0.074762,0.024322,9.870843
26.00,0.057861,0.120921,9.838860
26.01,0.009648,0.178703,9.886959
26.02,-0.019751,0.057095,9.706940
26.03,0.064407,0.321138,9.856101
26.04,0.030128,0.135022,9.808889
26.05,0.032993,0.010135,9.820397
26.06,0.127282,0.216835,9.772039
26.07,0.085987,0.015243,9.713341
26.08,0.023252,0.143127,9.687512
26.09,0.010379,0.043643,9.841487
26.10,0.020985,0.010268,9.859607
26.11,0.034714,0.196466,9.797276
26.12,0.098304,0.099091,9.809174
26.13,-0.034815,0.258054,9.739065
26.14,0.162216,0.038440,9.861834
26.15,0.089220,-0.005274,9.818041
26.16,-0.179750,0.080496,9.775878
26.17,0.042911,0.349231,9.899519
26.18,0.116098,0.183576,9.877893
26.19,0.060653,0.159802,9.660294
26.20,-0.006749,0.160830,9.819297
26.21,0.018001,0.073232,9.719068
26.22,0.033777,0.328277,9.829364
26.23,0.077678,0.144254,9.500758
26.24,-0.100516,0.134204,9.836197
26.25,-0.039145,0.181078,9.888231
26.26,0.136897,-0.002555,9.806513
26.27,0.004994,0.025763,9.701691
26.28,0.121135,0.073074,10.014380
26.29,0.234296,0.168431,9.934929
26.30,-0.047363,-0.018497,9.766826
26.31,-0.107222,0.076001,9.794440
26.32,-0.036108,0.060553,9.623059
26.33,0.069647,-0.052982,9.869132
26.34,0.077453,0.027810,9.685508
26.35,0.156739,0.107316,9.889718
26.36,-0.031294,-0.059449,9.926335
26.37,0.007399,0.167271,9.817384
26.38,-0.091846,0.086846,9.718644
26.39,-0.238680,0.072016,9.950681
26.40,-0.044465,0.039831,9.826695
26.41,-0.136715,-0.053451,9.836509
26.42,0.003985,-0.023354,9.734752
26.43,-0.201008,0.052196,9.847940
26.44,-0.112595,-0.034307,9.809081
26.45,-0.034922,0.027466,9.697272
26.46,-0.029368,-0.065031,9.964878
26.47,-0.065703,0.037494,10.007559
26.48,0.084804,0.037963,9.934244
26.49,0.058374,-0.139833,9.920094
26.50,-0.124449,-0.009707,10.010517
26.51,0.056615,-0.142268,9.730063
26.52,0.066488,-0.174817,9.729678
26.53,-0.086661,-0.078789,9.795014
26.54,-0.075285,0.187198,9.867074
26.55,-0.085050,0.020275,9.808870
26.56,-0.134570,0.064500,9.736987
26.57,-0.128503,-0.003207,9.840414
26.58,0.018919,-0.040347,9.831283
26.59,-0.053310,0.010069,9.925735
26.60,-0.134203,-0.117375,9.846947
26.61,-0.165407,-0.033072,9.652937
26.62,-0.153325,0.019105,9.882849
26.63,-0.107021,-0.023291,10.003399
26.64,-0.021980,0.016173,9.849042
26.65,-0.164843,-0.072455,9.945783
26.66,-0.024781,0.044695,9.797524
26.67,-0.081916,-0.110719,9.905572
26.68,-0.086868,0.072201,9.775512
26.69,-0.016715,-0.054224,9.826312
26.70,-0.031642,-0.133450,9.828111
26.71,-0.211641,-0.199385,9.900683
26.72,-0.185985,-0.171683,9.771676
26.73,-0.117402,-0.185415,9.708735
26.74,-0.070097,-0.116979,9.903443
26.75,0.011342,-0.212559,9.901001
26.76,-0.091526,-0.007469,9.870469
26.77,0.041071,-0.101701,9.954200
26.78,-0.149747,-0.103960,9.842645
26.79,-0.133591,-0.201073,9.893465
26.80,-0.111657,-0.166790,9.833341
26.81,-0.148280,-0.279363,9.846260
26.82,0.015263,0.032309,9.910975
26.83,-0.292325,-0.204692,10.109817
26.84,-0.102679,-0.191413,9.965358
26.85,0.039686,0.037740,9.956211
26.86,-0.064746,-0.033862,9.991732
26.87,0.060993,-0.042891,9.696109
26.88,0.168747,-0.010973,9.983488
26.89,0.020309,0.054677,10.068264
26.90,0.131821,0.005269,10.017084
26.91,0.260014,-0.104803,10.042337
26.92,0.130780,0.101328,9.998026
26.93,0.130974,0.103118,10.102057
26.94,0.247314,0.192403,10.123935
26.95,0.314134,0.030770,10.377891
26.96,0.264297,0.106960,10.507495
26.97,0.280012,0.233731,10.638560
26.98,0.510165,0.166096,10.455309
26.99,0.407169,0.094676,10.575007
27.00,0.581458,0.341537,10.673010
27.01,0.564192,0.441376,10.754730
27.02,0.745445,0.404175,10.864931
27.03,0.585199,0.503199,11.019408
27.04,0.635350,0.536030,11.258425
27.05,0.817345,0.547941,11.190441
27.06,0.698224,0.599604,11.447103
27.07,0.830733,0.735923,11.543791
27.08,0.970262,0.587126,11.484244
27.09,0.720182,0.758799,11.609077
27.10,0.902915,0.631048,11.361142
27.11,0.966516,0.685900,11.432866
27.12,0.857524,0.864134,11.479718
27.13,0.767027,0.685378,11.436929
27.14,0.793995,0.771085,11.494799
27.15,0.714786,0.982042,11.174940
27.16,0.748332,0.872420,11.132399
27.17,0.676800,0.723323,11.080092
27.18,0.610429,0.723898,10.933458
27.19,0.638982,0.737731,10.774983
27.20,0.677072,0.834231,10.725495
27.21,0.526006,0.623358,10.644974
27.22,0.557322,0.589580,10.715247
27.23,0.528083,0.700145,10.375718
27.24,0.309430,0.475192,10.474034
27.25,0.336141,0.502108,10.442838
27.26,0.241561,0.532809,10.196202
27.27,0.122249,0.501414,10.214054
27.28,0.238513,0.359861,10.194766
27.29,0.099053,0.463116,10.135389
27.30,0.198957,0.446185,10.066967
27.31,0.016334,0.317568,9.961918
27.32,0.138405,0.473995,10.072867
27.33,-0.013994,0.340946,9.950956
27.34,0.155197,0.208239,9.977225
27.35,0.061786,0.395410,9.981356
27.36,0.048055,0.203280,10.041597
27.37,0.173040,0.241092,10.143260
27.38,0.054285,0.171631,9.872919
27.39,0.087121,0.246335,9.949551
27.40,0.061525,0.145606,9.794485
27.41,0.117889,0.139920,10.090483
27.42,0.161169,0.151815,9.946709
27.43,0.145434,0.116869,9.912760
27.44,0.042396,0.236394,9.948652
27.45,0.177803,0.044687,9.954619
27.46,0.009249,0.137876,9.872219
27.47,0.024705,0.144266,10.065361
27.48,0.075450,0.123980,10.012267
27.49,0.170976,0.208712,10.027484
27.50,-0.004861,0.008571,9.882370
27.51,0.161528,0.172202,9.878282
27.52,0.087213,0.025210,9.941673
27.53,0.058191,0.082225,10.034365
27.54,0.181915,0.013254,10.005885
27.55,0.030976,0.092613,9.879294
27.56,0.279036,0.070963,10.025187
27.57,0.082933,0.246215,9.862547
27.58,0.109821,0.132265,9.894945
27.59,0.221921,0.145789,9.978226
27.60,0.113102,0.019489,9.846651
27.61,0.194558,0.164601,9.868788
27.62,-0.056501,0.233576,10.121694
27.63,0.064528,0.169047,10.104448
27.64,0.131739,-0.008759,10.198130
27.65,0.186459,0.055632,10.015550
27.66,0.161348,0.097821,10.036301
27.67,0.153562,0.039167,9.957658
27.68,0.183953,0.284005,9.939436
27.69,0.136540,0.038643,10.062995
27.70,-0.073564,0.069456,10.113321
27.71,0.212503,0.020455,10.057105
27.72,0.029233,0.082413,9.895772
27.73,0.120341,0.169739,10.020225
27.74,0.108622,0.063489,9.905354
27.75,0.096707,0.031814,9.951221
27.76,0.003105,-0.041646,10.148591
27.77,-0.064949,0.135813,9.866304
27.78,0.008407,0.022367,10.204421
27.79,0.153041,0.013613,10.043790
27.80,-0.030547,-0.163941,9.943505
27.81,0.012900,0.007574,9.998213
27.82,0.114806,-0.019798,9.924166
27.83,-0.002889,-0.139276,9.939236
27.84,0.033709,0.080473,10.002517
27.85,0.081454,-0.047019,9.963550
27.86,0.095186,0.141952,9.904394
27.87,-0.013623,0.097988,9.976794
27.88,0.078926,-0.078202,9.868711
27.89,0.096974,0.083537,9.874222
27.90,-0.039453,0.097491,9.874424
27.91,0.076854,-0.081353,10.170981
27.92,-0.000469,-0.124444,10.045623
27.93,0.063895,-0.219373,10.065853
27.94,0.108888,-0.021523,10.008593
27.95,0.033939,-0.134730,10.059287
27.96,0.118054,-0.028810,10.127429
27.97,0.105133,-0.111733,10.051805
27.98,0.111332,-0.133199,10.176227
27.99,0.067745,-0.120107,10.009639
28.00,0.120307,-0.183383,10.074405
28.01,0.059763,-0.128396,10.086063
28.02,-0.107750,-0.146235,9.923598
28.03,-0.041090,-0.092121,10.022209
28.04,0.001994,-0.086140,9.834917
28.05,0.008513,-0.183467,10.007188
28.06,0.040687,-0.012796,9.993372
28.07,-0.055925,-0.116501,9.988488
28.08,0.165880,0.013803,9.982721
28.09,-0.006467,-0.089539,10.075752
28.10,-0.002341,-0.105501,9.937044
28.11,-0.058839,-0.152278,10.212689
28.12,-0.088897,-0.065546,10.084493
28.13,-0.022168,-0.113539,9.948493
28.14,-0.013282,-0.048794,10.094547
28.15,-0.025843,0.009901,10.130336
28.16,0.110141,-0.177371,10.068778
28.17,-0.035732,-0.070645,9.932292
28.18,-0.035826,-0.073161,10.257597
28.19,0.032983,-0.083317,10.098802
28.20,-0.049178,-0.154366,9.911072
28.21,0.004446,-0.152239,10.057707
28.22,-0.144188,-0.165153,10.015718
28.23,-0.146668,-0.165732,10.039336
28.24,-0.038271,-0.183389,9.920255
28.25,-0.069567,-0.123039,10.045982
28.26,-0.118700,-0.173564,9.958335
28.27,-0.047106,-0.076109,10.007406
28.28,-0.042935,-0.104192,10.081993
28.29,-0.119192,-0.092778,9.996463
28.30,-0.106566,-0.125523,10.015949
28.31,-0.050318,-0.095250,10.127869
28.32,-0.151838,-0.117454,9.957828
28.33,-0.120895,-0.032005,9.982676
28.34,-0.032191,-0.126262,9.922878
28.35,-0.079057,-0.057139,9.966857
28.36,-0.117478,-0.187818,10.062849
28.37,-0.153605,-0.022295,10.114665
28.38,-0.164377,-0.119787,9.970871
28.39,-0.095721,-0.143656,10.113226
28.40,0.075125,-0.157257,10.063510
28.41,-0.043332,-0.158927,9.915460
28.42,-0.196774,-0.095221,10.071894
28.43,-0.035009,0.068095,10.174579
28.44,-0.153630,-0.098243,9.866622
28.45,-0.094529,-0.218395,10.257035
28.46,-0.142358,-0.007220,9.996129
28.47,0.065575,-0.120317,9.892922
28.48,-0.187854,0.039354,10.072314
28.49,-0.072801,-0.054117,10.142206
28.50,-0.153363,-0.036908,10.031665
28.51,-0.039961,0.086272,10.091466
28.52,-0.076003,0.045401,10.272864
28.53,0.000592,-0.098225,10.082025
28.54,-0.042496,-0.080955,10.360265
28.55,-0.155483,-0.130211,10.189021
28.56,0.133361,0.226188,10.068239
28.57,-0.055316,-0.045665,10.092752
28.58,-0.143500,0.122309,10.032153
28.59,-0.082581,-0.008546,10.089539
28.60,-0.048017,-0.047112,10.121206
28.61,-0.050403,0.046159,10.025090
28.62,-0.057369,0.023366,9.927948
28.63,-0.018842,0.118609,10.198499
28.64,-0.025701,0.124455,10.164129
28.65,-0.161841,0.016814,9.925468
28.66,0.075840,-0.046585,10.084656
28.67,0.066049,-0.022719,10.170629
28.68,-0.025933,-0.105255,10.160645
28.69,-0.085355,0.059511,9.999210
28.70,-0.082315,0.084478,10.167138
28.71,-0.110919,-0.002230,10.070740
28.72,-0.098699,-0.008309,10.108386
28.73,-0.256122,0.094888,9.977843
28.74,0.043308,0.048808,9.644348
28.75,0.017244,0.085310,9.992558
28.76,-0.208835,0.075732,10.124175
28.77,-0.001159,0.127552,10.050184
28.78,-0.070548,0.064749,10.135940
28.79,-0.083343,0.072958,10.181715
28.80,-0.025400,-0.036636,10.038210
28.81,-0.201581,0.111493,10.028514
28.82,-0.060314,0.123983,9.852854
28.83,-0.050241,0.103793,9.916886
28.84,-0.047281,0.271830,9.937759
28.85,-0.160170,0.132529,10.127498
28.86,-0.012011,0.107361,10.039847
28.87,0.040085,0.159932,10.018526
28.88,-0.008996,0.288897,10.007108
28.89,-0.056750,0.139701,9.994102
28.90,0.179921,-0.059031,10.164346
28.91,-0.105914,0.152527,10.081319
28.92,0.033222,0.046490,10.171085
28.93,-0.005865,-0.038349,9.852565
28.94,0.139015,0.249632,10.125111
28.95,0.012354,0.230481,10.023377
28.96,0.032912,0.037454,10.043510
28.97,0.028701,0.035649,10.206825
28.98,-0.092984,0.117799,10.032426
28.99,-0.074380,0.031396,10.120452
29.00,-0.023469,0.088414,9.969303
29.01,0.078630,0.038966,10.074527
29.02,0.024141,0.060588,9.911593
29.03,-0.007599,-0.023324,10.064771
29.04,0.122151,0.151393,10.108812
29.05,-0.142798,0.177582,10.180660
29.06,-0.084467,0.069129,9.987968
29.07,-0.177150,0.069950,10.016579
29.08,0.122595,0.118733,10.004764
29.09,0.021514,0.063960,10.043460
29.10,0.109842,0.197446,9.972138
29.11,0.027045,-0.051079,9.852457
29.12,0.120845,0.118140,9.963542
29.13,0.032009,0.035059,10.062535
29.14,0.078050,-0.050663,10.052221
29.15,0.069392,0.213557,10.121827
29.16,0.078324,0.219291,10.150402
29.17,0.189021,0.006470,10.020778
29.18,-0.072841,0.053254,9.906693
29.19,0.054444,-0.025479,10.105105
29.20,0.078484,-0.018094,10.063303
29.21,0.069164,-0.089371,10.037923
29.22,0.036048,-0.106695,10.185277
29.23,0.027598,0.137763,10.107739
29.24,0.195189,-0.018344,10.074408
29.25,0.069456,-0.016637,10.077924
29.26,0.272385,-0.090923,10.145906
29.27,0.121755,-0.016227,9.991364
29.28,0.058369,-0.157006,9.971665
29.29,0.127707,-0.103801,10.035624
29.30,0.094059,-0.142996,9.940579
29.31,0.194455,0.051404,10.053149
29.32,-0.004677,-0.189082,10.066687
29.33,-0.053815,-0.156051,10.049397
29.34,0.120591,-0.230175,10.019405
29.35,0.159890,-0.142083,10.220100
29.36,0.117118,-0.112009,10.148102
29.37,0.149143,-0.001231,10.043542
29.38,0.138365,-0.101253,10.061763
29.39,-0.021232,-0.120205,10.189283
29.40,0.120453,-0.067045,9.992365
29.41,0.203933,-0.129959,9.953416
29.42,0.112851,0.094976,10.071806
29.43,-0.005286,-0.148182,10.089631
29.44,0.073084,-0.070676,10.096199
29.45,0.144496,-0.040311,10.129219
29.46,0.243649,-0.158434,9.972261
29.47,-0.056585,-0.097828,9.903735
29.48,0.128626,-0.153093,9.985169
29.49,0.024837,-0.092833,10.100840
29.50,0.139599,-0.108169,9.949480
29.51,0.145456,-0.128710,9.847286
29.52,0.079109,-0.210929,10.054080
29.53,0.147503,0.029865,9.981913
29.54,0.187265,-0.072815,9.864866
29.55,0.081892,-0.247063,10.043959
29.56,-0.013045,-0.153594,9.996810
29.57,0.206732,-0.245256,10.201944
29.58,0.157630,-0.058226,10.042123
29.59,0.134973,-0.120173,10.090726
29.60,0.033027,-0.117093,10.029259
29.61,0.165465,-0.183550,9.970078
29.62,0.248246,-0.139902,9.979904
29.63,0.073268,-0.049939,10.135582
29.64,0.088555,-0.026465,10.101071
29.65,-0.006295,-0.041003,9.876220
29.66,0.019188,-0.230447,9.899000
29.67,-0.011475,-0.118495,9.903316
29.68,0.082607,-0.080456,10.127383
29.69,0.042443,-0.156406,9.846971
29.70,0.097011,-0.227043,10.097479
29.71,-0.006765,-0.193752,10.057374
29.72,0.048507,0.032853,10.030914
29.73,-0.017122,-0.178571,9.967613
29.74,0.071346,-0.075400,10.132442
29.75,-0.077134,-0.087494,10.023581
29.76,0.062626,-0.082916,9.866454
29.77,0.025189,-0.091679,9.888370
29.78,0.058896,0.001703,9.843641
29.79,-0.090885,-0.053788,10.126752
29.80,0.090502,-0.101779,10.147733
29.81,0.011009,-0.042600,10.112511
29.82,0.049019,-0.143794,9.988134
29.83,-0.121252,0.001690,9.858360
29.84,-0.074395,-0.085581,9.894136
29.85,-0.009549,-0.075627,9.899176
29.86,0.128317,0.020688,9.992009
29.87,0.057051,-0.047498,10.133825
29.88,0.021834,-0.037519,10.131923
29.89,-0.065940,0.089468,9.943217
29.90,-0.083945,-0.076294,9.766862
29.91,0.023234,0.046932,9.872274
29.92,0.053701,0.088508,10.106278
29.93,0.010911,0.111357,10.009014
29.94,0.127512,0.197548,9.948709
29.95,-0.067284,-0.022574,9.940148
29.96,-0.001757,-0.035326,9.906000
29.97,-0.154961,0.104725,9.859097
29.98,-0.006000,0.119724,10.185060
29.99,0.091316,-0.013691,10.148070
30.00,-0.112873,0.093311,9.892393
30.01,0.034535,0.277307,9.797541
30.02,0.079204,0.072462,9.988168
30.03,-0.094457,0.142553,9.954847
30.04,-0.005079,0.199252,10.030726
30.05,0.080834,0.277699,10.051681
30.06,-0.030148,0.101179,9.847517
30.07,0.011361,0.185717,10.090831
30.08,-0.196422,0.026167,9.925774
30.09,-0.009599,0.094821,10.020152
30.10,-0.018787,0.060504,9.931477
30.11,-0.168987,-0.051421,10.048126
30.12,-0.142685,-0.025859,9.717893
30.13,-0.019789,0.139549,10.026192
30.14,-0.094815,0.143662,9.867395
30.15,0.015952,0.026671,9.956154
30.16,-0.050462,0.236675,10.071490
30.17,-0.073032,0.025133,9.864908
30.18,-0.093319,0.136121,9.847418
30.19,-0.058309,0.083685,9.904410
30.20,-0.019431,0.126579,9.896283
30.21,-0.042800,0.190776,9.832947
30.22,-0.121089,0.180101,9.946758
30.23,0.010270,0.176510,9.950107
30.24,-0.037799,0.166412,9.978742
30.25,-0.061018,0.018045,9.848632
30.26,-0.085814,0.210239,9.834329
30.27,-0.054347,0.034015,9.915003
30.28,-0.241973,0.109466,9.900485
30.29,-0.077109,0.088705,9.900527
30.30,0.033942,0.143439,9.850503
30.31,-0.080417,0.075026,9.952340
30.32,-0.091964,0.099257,9.823192
30.33,-0.146822,0.239347,9.903321
30.34,-0.060123,0.003886,9.882995
30.35,-0.115418,0.104752,9.908374
30.36,0.004780,0.013040,10.028330
30.37,-0.169087,0.153125,9.776432
30.38,-0.136095,0.037837,9.666823
30.39,-0.147774,0.095655,9.844606
30.40,0.047387,-0.017000,9.786959
30.41,-0.114116,0.188511,9.598903
30.42,-0.142219,0.087046,10.072843
30.43,-0.264941,0.088109,9.952232
30.44,-0.169808,0.139115,9.961027
30.45,-0.053755,-0.031774,9.863810
30.46,-0.053050,0.014542,9.932482
30.47,-0.145916,0.072620,9.846175
30.48,-0.140221,-0.086796,9.967908
30.49,0.057584,-0.083174,9.903417
30.50,0.125976,-0.021575,9.878889
30.51,0.003826,-0.052317,9.884463
30.52,0.038270,0.006208,10.025142
30.53,0.057028,0.070196,9.893354
30.54,0.094368,0.083016,9.771683
30.55,-0.104965,0.162355,9.906283
30.56,-0.148989,0.010331,9.919587
30.57,0.070129,0.019003,9.854229
30.58,-0.151424,-0.000837,9.861506
30.59,-0.154211,0.021272,9.758110
30.60,-0.149931,0.022026,9.872453
30.61,-0.077465,0.058452,9.739310
30.62,-0.223097,0.052699,9.833694
30.63,-0.176313,0.015394,9.789851
30.64,-0.108694,0.089316,9.953085
30.65,-0.151754,-0.034633,10.007801
30.66,0.031807,-0.090898,9.736386
30.67,-0.049697,-0.082927,9.848368
30.68,-0.001049,-0.060561,9.815806
30.69,-0.006734,-0.143687,9.891298
30.70,-0.057552,-0.110848,9.852492
30.71,0.041216,-0.157617,9.802144
30.72,0.001558,-0.043426,9.848272
30.73,-0.056824,-0.047000,9.815448
30.74,-0.162765,-0.221023,9.993844
30.75,0.016934,-0.135874,9.753585
30.76,-0.122261,0.058606,9.856719
30.77,0.012454,-0.040705,9.879957
30.78,-0.008248,-0.058226,9.870866
30.79,-0.119961,-0.151001,9.795256
30.80,0.012980,-0.077959,9.959901
30.81,0.011063,-0.104971,9.612217
30.82,0.014808,-0.170200,9.709746
30.83,0.014428,-0.148390,9.883533
30.84,-0.046071,-0.148784,9.727205
30.85,0.056894,-0.232140,9.719408
30.86,-0.042014,-0.220656,9.764586
30.87,-0.069550,-0.132209,9.730791
30.88,0.073787,-0.185327,9.871117
30.89,0.098106,-0.142547,9.895906
30.90,0.075036,-0.247660,9.812358
30.91,0.013282,-0.055580,9.907054
30.92,-0.122017,0.046532,9.661018
30.93,0.154921,-0.037675,9.805325
30.94,-0.116816,-0.029121,9.930611
30.95,0.089639,-0.068903,9.891587
30.96,0.214692,-0.096903,9.935622
30.97,0.060904,-0.110108,9.731088
30.98,0.075277,-0.188788,9.879922
30.99,0.085316,-0.058724,9.743648
31.00,0.073782,-0.061468,9.843982
31.01,0.248914,-0.146641,9.913720
31.02,-0.003661,-0.064854,9.701427
31.03,-0.010765,-0.159419,9.593510
31.04,0.043519,-0.150896,9.962169
31.05,0.212055,-0.034603,9.824659
31.06,0.029847,-0.057822,9.763724
31.07,0.113837,-0.105933,9.757034
31.08,0.168805,-0.109698,9.562724
31.09,0.149561,-0.061724,9.792748
31.10,0.173348,-0.215582,9.718931
31.11,0.210705,-0.121534,9.778130
31.12,0.128186,-0.153285,9.777852
31.13,0.074347,-0.041164,9.440356
31.14,0.131448,0.056212,9.832208
31.15,0.102968,0.019950,9.809438
31.16,0.344206,-0.044908,9.833012
31.17,0.114555,-0.044539,9.795951
31.18,0.213135,-0.030440,9.836976
31.19,0.074689,0.209779,9.872121
31.20,0.228924,0.077400,9.910801
31.21,0.222404,0.112409,9.966059
31.22,0.330242,-0.045558,9.989256
31.23,0.367005,0.058255,10.196446
31.24,0.462785,0.181110,9.997876
31.25,0.498763,0.179194,10.100757
31.26,0.432307,0.266500,10.384060
31.27,0.411023,0.304510,10.284153
31.28,0.471903,0.384062,10.485161
31.29,0.615582,0.229355,10.504218
31.30,0.658180,0.334730,10.571153
31.31,0.720257,0.460412,10.798303
31.32,0.709614,0.462303,10.857250
31.33,0.917729,0.534923,10.754938
31.34,0.731555,0.613460,11.022859
31.35,0.843830,0.588852,10.994406
31.36,0.840534,0.705608,11.297758
31.37,0.938541,0.772950,11.408416
31.38,1.075615,0.770640,11.466314
31.39,0.964940,0.855296,11.342273
31.40,0.999195,0.651668,11.268650
31.41,1.038246,0.801677,11.335587
31.42,0.943361,0.937809,11.178723
31.43,0.977322,0.809657,11.458275
31.44,0.935383,0.805523,11.277637
31.45,0.786403,0.876422,11.108815
31.46,0.795223,0.880459,11.086557
31.47,0.811334,0.828876,10.837403
31.48,0.832457,1.003702,10.669743
31.49,0.776850,0.858827,10.450381
31.50,0.785221,0.738949,10.571167
31.51,0.599557,0.667398,10.435680
31.52,0.471732,0.783068,10.406657
31.53,0.445592,0.641857,10.260558
31.54,0.390095,0.851484,10.218698
31.55,0.318210,0.675360,10.172818
31.56,0.336690,0.646944,9.874830
31.57,0.299450,0.582812,10.045653
31.58,0.134165,0.613698,9.864532
31.59,0.282014,0.294159,9.911394
31.60,0.018712,0.352515,9.923664
31.61,0.122150,0.496014,9.892749
31.62,0.209518,0.499629,9.776937
31.63,0.146815,0.249056,9.761021
31.64,0.053017,0.172818,9.815705
31.65,0.224799,0.304349,9.563204
31.66,0.019851,0.304644,9.607792
31.67,-0.115597,0.254659,9.666908
31.68,0.071735,0.217277,9.555214
31.69,-0.114605,0.055092,9.656357
31.70,-0.045698,0.156314,9.646979
31.71,0.064568,0.153048,9.685200
31.72,-0.027562,0.113636,9.668263
31.73,0.050808,-0.008227,9.778778
31.74,-0.092850,0.181063,9.727348
31.75,0.064214,0.193632,9.661373
31.76,-0.143773,0.051805,9.633738
31.77,0.093139,0.092280,9.661012
31.78,-0.054096,0.059832,9.661566
31.79,0.102818,0.053564,9.915271
31.80,-0.090434,0.125370,9.516530
31.81,0.127343,0.121013,9.568575
31.82,-0.106632,0.159574,9.552856
31.83,-0.176857,0.152063,9.686044
31.84,-0.033160,0.048298,9.681072
31.85,0.058898,0.283798,9.599801
31.86,0.020284,0.174873,9.745740
31.87,0.046957,-0.007293,9.692129
31.88,0.015716,0.049982,9.748023
31.89,-0.117730,-0.124513,9.773623
31.90,0.006285,0.031024,9.439252
31.91,-0.050455,0.157221,9.720012
31.92,-0.117444,0.240300,9.521552
31.93,-0.049028,0.002555,9.674621
31.94,-0.070517,0.033505,9.641526
31.95,0.044712,0.049599,9.644945
31.96,-0.112232,0.154018,9.526669
31.97,-0.118360,-0.088510,9.749359
31.98,-0.131623,0.197081,9.516455
31.99,0.073805,-0.046176,9.719766
32.00,-0.131476,-0.119826,9.500746
32.01,0.021663,-0.056781,9.641386
32.02,-0.166519,-0.101607,9.822862
32.03,-0.045302,-0.008498,9.877852
32.04,-0.066553,-0.179341,9.479098
32.05,0.009499,-0.040829,9.569811
32.06,-0.003611,-0.003944,9.587308
32.07,-0.085532,0.056785,9.864403
32.08,-0.136342,-0.012044,9.631403
32.09,0.035440,0.042699,9.745055
32.10,-0.146581,-0.123817,9.666927
32.11,-0.277996,-0.048031,9.516416
32.12,-0.246102,-0.261940,9.449754
32.13,-0.227344,-0.096580,9.573835
32.14,-0.051088,-0.060196,9.866257
32.15,0.077927,-0.056441,9.659771
32.16,-0.262796,-0.223830,9.738901
32.17,-0.162453,-0.132196,9.491108
32.18,-0.092857,-0.123910,9.599892
32.19,0.023651,-0.140823,9.709796
32.20,-0.162917,-0.050920,9.522307
32.21,-0.052390,-0.128461,9.624553
32.22,-0.119314,-0.105130,9.542513
32.23,0.109731,-0.153969,9.712688
32.24,-0.086695,-0.031095,9.669465
32.25,-0.069103,-0.026379,9.697535
32.26,-0.090000,-0.143175,9.715901
32.27,-0.128983,0.108799,9.605638
32.28,-0.018771,-0.181056,9.728354
32.29,-0.186323,-0.039400,9.568686
32.30,-0.252486,-0.196041,9.689897
32.31,-0.102962,-0.057852,9.429897
32.32,-0.024210,-0.063575,9.552039
32.33,-0.134320,-0.199345,9.857951
32.34,-0.071236,-0.127836,9.687179
32.35,-0.182005,0.033297,9.686939
32.36,0.002570,-0.179757,9.543153
32.37,-0.028286,-0.080713,9.515873
32.38,-0.076760,-0.084035,9.598623
32.39,-0.062646,-0.112035,9.618125
32.40,-0.185345,-0.244693,9.816077
32.41,-0.179397,-0.037240,9.726331
32.42,-0.078786,-0.099710,9.635150
32.43,-0.025387,-0.009229,9.630661
32.44,-0.018715,-0.075688,9.699751
32.45,-0.090203,-0.085565,9.491918
32.46,0.001232,-0.057222,9.431536
32.47,0.058104,-0.162148,9.697896
32.48,-0.059746,0.045557,9.630659
32.49,-0.024911,-0.104903,9.492159
32.50,-0.063284,-0.099496,9.413809
32.51,-0.053677,0.037419,9.712623
32.52,-0.026871,-0.041511,9.571033
32.53,0.099009,-0.075420,9.663180
32.54,0.039198,-0.018485,9.596756
32.55,0.035260,0.003510,9.619698
32.56,-0.063748,-0.050916,9.563901
32.57,-0.095964,0.037545,9.615491
32.58,0.010421,-0.132603,9.680877
32.59,0.082150,-0.004665,9.595638
32.60,0.123936,0.043814,9.589982
32.61,-0.206718,0.034981,9.684084
32.62,0.188646,-0.188571,9.690826
32.63,0.029745,-0.013919,9.509748
32.64,0.072555,-0.095411,9.620709
32.65,-0.135900,0.110073,9.571337
32.66,-0.012205,-0.018558,9.625211
32.67,0.076018,0.112130,9.767373
32.68,-0.080359,-0.073790,9.660023
32.69,-0.214029,0.060195,9.840711
32.70,0.047271,0.034888,9.646419
32.71,0.019818,0.260616,9.607997
32.72,0.142449,0.138879,9.622870
32.73,0.017658,0.138816,9.639308
32.74,0.026786,0.216885,9.657547
32.75,0.092771,0.082203,9.526294
32.76,0.122826,0.056256,9.602414
32.77,-0.013415,0.051715,9.553541
32.78,0.121934,0.099458,9.729204
32.79,0.007669,-0.144095,9.433947
32.80,0.053704,0.081819,9.642486
32.81,0.108955,0.103724,9.475272
32.82,0.125750,0.076879,9.670616
32.83,0.086381,-0.029546,9.587815
32.84,-0.022825,0.084323,9.446350
32.85,-0.083373,-0.023205,9.722586
32.86,0.053759,0.244363,9.377067
32.87,0.148965,0.084631,9.625918
32.88,0.109619,-0.057263,9.698542
32.89,0.095300,0.093541,9.767468
32.90,0.077578,0.183770,9.469162
32.91,0.104977,0.128065,9.578966
32.92,0.002736,0.042472,9.739335
32.93,0.146594,0.062678,9.746503
32.94,0.153698,0.095102,9.759873
32.95,0.059284,0.083741,9.888384
32.96,0.124273,0.018762,9.581794
32.97,-0.046511,0.114482,9.670346
32.98,0.106610,0.013301,9.598976
32.99,0.082838,0.195781,9.436513
33.00,0.195397,0.205151,9.625495
33.01,0.079825,0.038562,9.435538
33.02,0.166153,0.060589,9.583378
33.03,0.066194,0.082937,9.489140
33.04,-0.084689,0.112866,9.680345
33.05,0.080750,0.134303,9.559117
33.06,0.115010,0.148928,9.458967
33.07,0.111694,0.144955,9.724579
33.08,0.113142,0.231749,9.578171
33.09,0.059469,0.109705,9.595876
33.10,0.074087,-0.002107,9.541858
33.11,0.009758,-0.029642,9.755096
33.12,-0.060101,0.226748,9.667801
33.13,0.090753,0.133248,9.580008
33.14,0.039177,0.105388,9.450488
33.15,0.184586,0.121002,9.893536
33.16,-0.077070,0.093933,9.840997
33.17,0.119942,0.111627,9.787964
33.18,0.265436,0.042863,9.573936
33.19,0.080032,0.152630,9.594764
33.20,0.093270,0.021627,9.685537
33.21,0.126315,-0.013379,9.556702
33.22,0.131177,-0.081240,9.547770
33.23,0.056634,0.030040,9.793194
33.24,0.007044,0.145386,9.642458
33.25,0.138213,0.002232,9.536623
33.26,-0.068464,-0.076711,9.744521
33.27,0.148844,0.051041,9.592513
33.28,0.048908,-0.029208,9.452620
33.29,0.078389,0.141314,9.537732
33.30,0.033891,0.097958,9.600227
33.31,0.188117,-0.095168,9.674539
33.32,0.091186,-0.012909,9.670388
33.33,0.043060,-0.064922,9.776666
33.34,0.038258,-0.102834,9.630865
33.35,0.051770,-0.019941,9.608686
33.36,0.252675,0.044552,9.780443
33.37,-0.047224,-0.032839,9.754499
33.38,0.141928,-0.072935,9.635977
33.39,0.097834,-0.213416,9.687223
33.40,0.172596,-0.095379,9.611188
33.41,0.096703,-0.003077,9.543207
33.42,0.043558,-0.159586,9.879854
33.43,0.121751,0.045476,9.606650
33.44,0.055342,-0.108598,9.691050
33.45,0.094125,-0.051058,9.510730
33.46,0.144713,-0.102995,9.736627
33.47,0.034548,-0.169528,9.543115
33.48,-0.010146,-0.044399,9.832217
33.49,-0.031070,-0.131497,9.844885
33.50,0.053084,-0.154155,9.722433
33.51,-0.056628,-0.281276,9.678084
33.52,-0.017790,0.009550,9.648582
33.53,-0.070654,-0.097454,9.663299
33.54,0.043968,-0.012495,9.709708
33.55,-0.060327,-0.054267,9.678491
33.56,-0.106548,-0.018010,9.768420
33.57,-0.095922,-0.154074,9.579154
33.58,-0.056189,-0.220925,9.824527
33.59,-0.052354,-0.052064,9.630188
33.60,0.002774,-0.104373,9.598603
33.61,-0.033662,-0.153562,9.710188
33.62,0.005528,-0.058049,9.717320
33.63,0.008619,-0.093773,9.501735
33.64,0.028513,-0.068005,9.628030
33.65,-0.186609,-0.201342,9.459675
33.66,-0.127370,-0.041499,9.610050
33.67,0.004046,-0.119956,9.615100
33.68,-0.026522,-0.032383,9.708859
33.69,0.031704,-0.040999,9.601088
33.70,-0.172900,-0.062527,9.625530
33.71,-0.090213,-0.124959,9.811808
33.72,-0.078607,-0.057588,9.888653
33.73,-0.044111,-0.023393,9.591001
33.74,-0.056914,-0.061205,9.785942
33.75,-0.024367,-0.090569,9.723822
33.76,-0.072875,-0.046357,9.512331
33.77,0.044649,-0.141327,9.608471
33.78,0.069193,0.026515,9.386480
33.79,-0.155918,-0.223772,9.723709
33.80,-0.062534,-0.080290,9.586335
33.81,-0.001067,-0.108423,9.710842
33.82,-0.015753,-0.119092,9.959015
33.83,-0.091559,-0.034118,9.867064
33.84,-0.033315,-0.137980,9.638640
33.85,-0.173286,0.136261,9.624293
33.86,-0.038866,-0.130397,9.867105
33.87,-0.142373,-0.082884,9.653414
33.88,0.029723,-0.073049,9.873266
33.89,-0.082378,0.045975,10.072955
33.90,0.041245,0.132994,9.897891
33.91,0.078803,0.118018,9.986311
33.92,0.088371,0.220305,10.019615
33.93,0.064876,0.065453,9.910007
33.94,0.135847,0.216010,10.056138
33.95,0.288415,0.173241,10.001637
33.96,0.204970,0.252432,10.305158
33.97,0.289009,0.361845,10.154862
33.98,0.293880,0.178820,10.428203
33.99,0.473220,0.516336,10.572281
34.00,0.452114,0.389733,10.515531
34.01,0.439182,0.318138,10.600645
34.02,0.554255,0.437084,10.763796
34.03,0.585552,0.546520,10.796731
34.04,0.763918,0.528101,11.001047
34.05,0.691928,0.463688,10.984360
34.06,0.622045,0.677351,11.070564
34.07,0.802871,0.651424,11.274342
34.08,0.928486,0.797650,11.329470
34.09,0.895640,0.692728,11.268154
34.10,0.717207,0.987463,11.143319
34.11,0.780635,0.871204,11.415806
34.12,0.787639,0.864276,11.225302
34.13,0.768231,0.911357,11.429525
34.14,0.772109,0.723138,11.146635
34.15,0.679163,0.830763,11.095702
34.16,0.592659,1.009180,10.949511
34.17,0.696568,0.831465,10.918804
34.18,0.481563,0.837375,11.138121
34.19,0.456046,0.785562,10.648754
34.20,0.377549,0.916132,10.704440
34.21,0.464709,0.751622,10.481489
34.22,0.373161,0.639976,10.490003
34.23,0.386237,0.912679,10.085905
34.24,0.206394,0.560572,10.387571
34.25,0.125931,0.625561,10.149495
34.26,0.151341,0.527973,10.019648
34.27,0.136902,0.500918,10.076542
34.28,0.136949,0.434285,9.948884
34.29,-0.041600,0.438668,9.775987
34.30,0.107982,0.524568,9.612066
34.31,-0.021452,0.259188,10.007195
34.32,-0.017863,0.479511,9.778263
34.33,0.114796,0.435015,9.720163
34.34,-0.163995,0.360099,9.713012
34.35,0.028675,0.303105,9.901506
34.36,0.022709,0.291001,9.697373
34.37,-0.072149,0.360789,9.804382
34.38,-0.044747,0.087411,9.701798
34.39,0.087613,0.267419,9.606451
34.40,0.146905,0.133573,9.819761
34.41,0.075817,0.245074,9.838403
34.42,0.142934,0.117226,9.659206
34.43,-0.061303,0.211547,9.722807
34.44,-0.130065,0.021017,9.736020
34.45,-0.005227,0.000440,9.770770
34.46,0.066238,0.118646,9.923465
34.47,-0.143498,0.235130,9.694119
34.48,-0.066084,0.156403,9.693733
34.49,-0.053968,0.149541,9.709474
34.50,0.043070,0.170130,9.633074
34.51,0.036066,0.063961,9.555381
34.52,-0.040835,0.139204,9.741280
34.53,0.038882,0.038751,9.780938
34.54,-0.063782,0.054885,9.728758
34.55,-0.003029,0.059756,9.722540
34.56,-0.066846,0.026260,9.639230
34.57,0.025535,0.059571,9.754628
34.58,-0.023311,0.039417,9.746651
34.59,0.099086,-0.001945,9.777424
34.60,0.044838,0.038257,9.762564
34.61,0.031815,0.056710,9.769832
34.62,0.194367,-0.048972,9.862574
34.63,0.086480,0.067088,9.788153
34.64,0.029198,-0.011177,9.779223
34.65,0.014714,0.038756,9.557132
34.66,-0.030391,-0.035779,9.836946
34.67,0.061446,0.096002,9.702015
34.68,0.093860,0.082949,9.739918
34.69,-0.081448,-0.083002,9.604895
34.70,-0.035051,0.037439,9.941352
34.71,0.035056,0.105643,9.485115
34.72,-0.009324,-0.091389,9.881511
34.73,0.084083,-0.090493,9.775370
34.74,0.097191,0.032432,9.542471
34.75,0.074731,-0.136288,9.936779
34.76,0.130326,-0.099189,9.784645
34.77,0.041212,-0.123357,9.497559
34.78,0.085921,0.012508,9.691258
34.79,0.010810,-0.107692,9.787060
34.80,0.115217,-0.079963,9.905029
34.81,0.099782,-0.121838,9.692869
34.82,-0.001023,0.025263,9.469182
34.83,0.083491,-0.139876,9.879847
34.84,0.093793,-0.188090,9.783829
34.85,0.120106,-0.195423,9.510809
34.86,0.123765,-0.028217,9.768381
34.87,0.041193,-0.026295,9.779006
34.88,0.160435,0.008650,9.701709
34.89,0.141524,-0.195590,9.651474
34.90,0.041930,-0.116488,9.673244
34.91,0.008578,0.093120,9.701688
34.92,0.048120,-0.128110,9.769693
34.93,-0.017901,-0.151639,9.813047
34.94,0.116212,-0.110664,9.519409
34.95,0.193877,-0.068776,9.759763
34.96,0.212418,-0.072068,9.782927
34.97,0.010932,-0.163997,9.751004
34.98,0.160291,-0.163121,9.693554
34.99,0.103258,-0.141265,9.875962
35.00,-0.096142,-0.176938,9.868356
35.01,0.067864,-0.218046,9.697220
35.02,0.057770,0.024889,9.725452
35.03,0.188828,-0.152532,9.810855
35.04,0.020874,-0.147976,9.861836
35.05,0.134075,-0.145210,9.651916
35.06,0.078837,-0.125598,9.628736
35.07,-0.029992,-0.083601,9.760653
35.08,0.039665,-0.154572,9.620751
35.09,0.204437,-0.024936,9.538474
35.10,0.066006,-0.066743,9.650794
35.11,0.150218,-0.128083,9.774398
35.12,0.143614,-0.164115,9.887885
35.13,0.037359,-0.021795,9.661483
35.14,-0.031851,-0.119096,9.719761
35.15,-0.023804,-0.202874,9.747564
35.16,0.181912,-0.018872,9.666963
35.17,0.075276,-0.155555,9.658914
35.18,-0.078286,-0.024655,9.764929
35.19,0.124348,-0.291765,9.611480
35.20,-0.088175,-0.116415,9.654268
35.21,-0.014241,0.009761,9.710530
35.22,0.055368,-0.078567,9.762807
35.23,0.247454,-0.026901,9.578802
35.24,0.108002,-0.142524,9.717005
35.25,0.000981,-0.038022,9.600754
35.26,0.038641,-0.060869,9.661165
35.27,0.106713,-0.036904,9.808188
35.28,0.143605,0.111688,9.721674
35.29,0.006730,0.057937,9.895693
35.30,0.005705,0.022052,9.721288
35.31,-0.046585,0.028272,9.825024
35.32,0.069634,-0.103545,9.807409
35.33,0.095081,-0.063161,9.726313
35.34,-0.145525,-0.142666,9.595767
35.35,-0.025620,-0.116180,9.716511
35.36,-0.094403,-0.080059,9.673433
35.37,0.011289,-0.005971,9.669248
35.38,-0.103273,-0.096138,9.741647
35.39,-0.113298,0.004228,9.580777
35.40,0.078754,0.000524,9.638013
35.41,-0.027802,-0.072435,9.623850
35.42,-0.022756,0.145769,9.699288
35.43,0.013183,-0.076872,9.647542
35.44,0.052951,0.123784,9.653759
35.45,-0.061535,-0.140709,9.737187
