time,ax,ay,az
0.00,0.032750,0.283110,9.899077
0.01,-0.033833,0.102149,10.032274
0.02,-0.026062,-0.034152,9.718631
0.03,-0.028307,0.160453,9.737029
0.04,-0.014423,0.093762,9.785281
0.05,-0.106196,0.098500,9.856422
0.06,0.017538,0.174751,9.830363
0.07,0.008472,0.201582,9.902512
0.08,-0.036430,0.123614,9.661509
0.09,0.075976,0.112517,9.875721
0.10,0.088953,0.367616,9.717375
0.11,-0.003908,0.263998,9.802342
0.12,0.048242,0.219645,10.062652
0.13,0.327144,0.134801,9.628896
0.14,0.325050,-0.002446,9.786642
0.15,-0.053488,0.252467,9.648433
0.16,-0.034413,0.133187,9.849426
0.17,-0.049580,0.045058,9.975861
0.18,0.206530,0.083348,9.853969
0.19,0.033900,-0.005446,9.814983
0.20,0.112427,0.235113,10.018403
0.21,0.325144,0.187708,9.879798
0.22,0.085993,0.124827,9.949365
0.23,0.173635,0.094967,9.935856
0.24,0.152865,0.015282,9.434138
0.25,0.021251,-0.161990,9.827165
0.26,0.220249,-0.079473,9.688053
0.27,-0.007614,-0.002770,9.723960
0.28,0.256225,-0.024720,10.047583
0.29,0.025919,0.113075,9.789741
0.30,0.039917,0.171481,10.108242
0.31,-0.032602,0.054283,9.647270
0.32,-0.012269,0.234213,9.693692
0.33,0.047939,-0.033494,9.953191
0.34,-0.192221,0.039373,9.799720
0.35,0.071812,0.044586,9.891584
0.36,0.039007,0.176726,9.833876
0.37,0.194798,0.053234,9.830675
0.38,0.150668,0.051334,9.809073
0.39,0.014788,-0.168571,9.877821
0.40,0.044353,-0.083337,9.943541
0.41,0.070781,0.150755,10.080745
0.42,0.276688,-0.235251,9.827383
0.43,-0.000983,0.169469,9.801628
0.44,0.010527,0.062772,9.784590
0.45,-0.039444,-0.092394,10.064495
0.46,-0.082885,-0.108036,9.956355
0.47,0.130660,0.213844,9.594823
0.48,0.116916,0.150246,9.589622
0.49,0.245137,-0.038867,9.746416
0.50,0.214704,-0.013743,9.895803
0.51,0.375810,-0.112733,9.859848
0.52,0.077608,-0.024241,9.937548
0.53,0.053422,-0.126421,9.841854
0.54,-0.073230,-0.060020,10.062985
0.55,0.164400,0.161708,9.976365
0.56,0.092951,-0.071824,9.880045
0.57,0.154702,-0.190805,10.030440
0.58,-0.062414,-0.233563,9.640146
0.59,0.114116,-0.058753,9.859974
0.60,0.094104,-0.169568,9.892021
0.61,0.083638,-0.052757,9.957931
0.62,-0.017645,-0.280605,9.634391
0.63,0.204383,-0.007169,9.838917
0.64,0.304944,-0.220763,9.932290
0.65,-0.077161,-0.091336,9.943871
0.66,0.139639,-0.140632,10.043961
0.67,-0.295114,0.103237,9.985340
0.68,0.127444,-0.085108,9.871028
0.69,-0.180282,0.125275,9.974851
0.70,-0.021986,-0.043160,9.852963
0.71,-0.119728,0.058565,9.902492
0.72,0.008740,-0.139338,9.993997
0.73,0.132007,-0.074380,9.877154
0.74,-0.194826,0.029083,9.934937
0.75,-0.018419,-0.009627,10.019594
0.76,-0.040248,-0.055322,9.985457
0.77,0.207694,-0.158963,10.059174
0.78,0.066370,-0.138981,10.213194
0.79,-0.130134,0.016527,9.986335
0.80,-0.048864,0.041704,9.824048
0.81,0.190975,-0.190509,9.960978
0.82,0.086511,-0.207926,9.955641
0.83,-0.112856,-0.226231,9.976571
0.84,-0.038169,-0.016983,10.100645
0.85,-0.037778,-0.226652,9.656220
0.86,-0.077556,-0.015327,10.104575
0.87,-0.221642,-0.046043,10.152327
0.88,-0.101129,-0.174789,9.973420
0.89,0.143514,0.080664,9.977399
0.90,-0.072274,-0.279867,9.861269
0.91,-0.042242,0.097571,9.896573
0.92,-0.016269,-0.060270,9.993979
0.93,0.229805,-0.344108,9.985529
0.94,-0.038504,0.099177,9.998287
0.95,0.088555,0.028455,9.985665
0.96,-0.117598,-0.135773,10.024239
0.97,-0.079988,-0.196153,10.009117
0.98,-0.050339,-0.264505,9.756088
0.99,-0.147665,0.217966,10.016513
1.00,-0.082073,-0.178212,10.160685
1.01,0.046150,-0.214414,9.897231
1.02,-0.159177,-0.025878,10.111350
1.03,-0.065765,-0.249698,9.773454
1.04,0.016710,-0.165948,9.898149
1.05,-0.169756,0.076324,9.812982
1.06,0.058233,0.017814,10.096252
1.07,-0.066781,-0.078995,10.133233
1.08,-0.097561,-0.025105,9.890072
1.09,-0.320850,-0.075011,10.068289
1.10,-0.126737,-0.023922,10.135798
1.11,-0.039246,-0.102432,9.900458
1.12,0.123771,-0.075153,9.923577
1.13,-0.019255,-0.073304,10.008450
1.14,0.046118,-0.081623,9.788109
1.15,-0.235641,0.136240,9.921786
1.16,-0.107179,0.108852,10.206658
1.17,0.053226,-0.090013,9.836949
1.18,-0.200982,-0.116069,10.026758
1.19,0.020294,0.013714,9.980813
1.20,-0.008498,0.296483,9.884800
1.21,-0.064379,-0.080294,9.938992
1.22,-0.137522,0.028774,10.153548
1.23,-0.217049,0.063757,9.985893
1.24,0.113854,0.044952,10.007960
1.25,-0.023747,0.007760,10.132890
1.26,-0.058957,0.205979,9.868422
1.27,-0.149514,0.126387,9.762529
1.28,-0.095449,0.177679,10.156811
1.29,-0.080130,0.151079,9.928488
1.30,-0.051694,0.191630,10.034599
1.31,-0.011223,0.278309,9.802876
1.32,-0.192786,0.251545,9.964090
1.33,-0.274308,0.374242,9.756208
1.34,-0.087513,0.244592,9.918771
1.35,-0.306486,0.021216,9.819194
1.36,-0.134737,0.206051,9.787075
1.37,-0.155963,0.192231,9.867540
1.38,-0.034701,0.339795,9.588920
1.39,0.145463,-0.004550,9.747614
1.40,-0.324427,0.180379,10.019530
1.41,0.183307,0.033373,9.958645
1.42,-0.115976,0.178042,9.759552
1.43,-0.044577,0.091957,9.986594
1.44,-0.254298,0.176205,9.786883
1.45,0.037004,-0.049879,10.010836
1.46,-0.075648,0.214990,9.893487
1.47,-0.085909,0.144719,9.864062
1.48,-0.308833,0.138192,9.896721
1.49,-0.065215,0.353641,10.267681
1.50,0.029795,0.073149,9.802979
1.51,-0.097607,0.159302,9.940782
1.52,0.074184,0.129196,10.018294
1.53,0.071841,0.139616,9.773991
1.54,-0.138348,0.380912,9.685347
1.55,0.132761,0.120156,9.824191
1.56,-0.050384,0.042392,10.014458
1.57,-0.046950,0.332709,9.860029
1.58,-0.038079,0.068785,9.875318
1.59,-0.038616,-0.089629,10.034932
1.60,-0.359471,0.011160,9.794275
1.61,-0.062984,-0.052670,9.894464
1.62,-0.201217,-0.122419,9.694666
1.63,0.160842,0.046479,9.951207
1.64,0.159279,0.077898,9.938129
1.65,0.074490,0.224105,10.017057
1.66,-0.053011,0.153948,9.745028
1.67,-0.141960,0.144357,9.878195
1.68,-0.096444,-0.037048,9.725818
1.69,0.219165,0.172239,9.870216
1.70,-0.093212,0.229143,10.112263
1.71,-0.288586,0.106200,9.860621
1.72,0.122759,0.107137,9.716136
1.73,0.185764,-0.096201,9.816116
1.74,0.214040,0.183652,9.693418
1.75,0.153253,0.276028,9.751472
1.76,0.193742,0.111540,10.050814
1.77,0.087757,0.019160,9.793707
1.78,-0.120160,0.098320,10.101279
1.79,0.201312,0.106716,10.152470
1.80,0.368754,0.167983,10.203909
1.81,0.406404,0.359900,10.484817
1.82,0.564526,0.404797,10.545579
1.83,0.668356,0.599186,11.066401
1.84,0.889960,0.647431,11.162404
1.85,1.473496,0.636616,11.540902
1.86,1.720221,0.825105,11.858606
1.87,1.716318,0.962464,12.330841
1.88,1.929150,1.143466,12.555915
1.89,1.894808,1.498625,12.271884
1.90,2.132141,1.607905,12.729347
1.91,2.229439,1.529039,12.393443
1.92,1.723391,1.458654,12.429436
1.93,1.789583,1.255497,12.215463
1.94,1.582992,1.380234,11.875125
1.95,1.344942,1.159285,11.658931
1.96,1.241684,1.322702,11.353572
1.97,1.068375,0.788922,10.831755
1.98,0.603789,0.873530,10.553606
1.99,0.554522,0.568278,10.436848
2.00,0.360840,0.525478,10.049868
2.01,0.184073,0.473316,10.068529
2.02,0.228775,0.399729,10.231498
2.03,0.234507,0.172046,9.769295
2.04,0.153267,0.191341,9.892028
2.05,0.005647,-0.041767,9.831509
2.06,0.047006,0.019844,10.180022
2.07,0.043552,0.075692,9.815117
2.08,-0.004650,-0.029810,9.818098
2.09,0.133645,-0.150732,9.737917
2.10,0.146469,-0.132681,9.881610
2.11,0.214416,0.014676,9.916783
2.12,-0.005373,-0.243458,9.753879
2.13,0.028892,-0.229088,10.015374
2.14,0.285312,-0.045620,9.914014
2.15,0.079499,-0.171661,9.994460
2.16,0.103218,-0.293856,9.828386
2.17,0.078837,0.042552,9.907499
2.18,0.235943,-0.251185,9.842740
2.19,0.240607,-0.142536,10.075763
2.20,0.233467,-0.192035,9.887070
2.21,0.102842,-0.152239,9.871117
2.22,-0.005385,-0.221242,9.804828
2.23,0.329867,-0.027699,9.795830
2.24,0.201016,-0.098198,9.900421
2.25,0.042759,0.008692,9.980951
2.26,0.267599,-0.180065,9.769431
2.27,0.031535,0.151604,9.882044
2.28,0.264045,-0.330090,9.889154
2.29,0.270995,-0.288709,9.912581
2.30,-0.018249,0.115125,9.622394
2.31,0.160757,-0.034912,9.731008
2.32,0.183319,-0.047187,9.668273
2.33,0.401648,-0.032568,9.863111
2.34,-0.002918,-0.011758,9.731381
2.35,0.256262,-0.040127,9.787052
2.36,0.084545,-0.187610,9.688340
2.37,-0.068474,0.031094,9.798119
2.38,0.064065,0.017066,9.696286
2.39,0.076735,0.114416,9.958985
2.40,-0.052537,0.160431,9.919469
2.41,0.110410,-0.005155,9.873487
2.42,0.187031,-0.184509,9.811391
2.43,0.101247,0.184851,9.571699
2.44,0.010796,-0.138073,9.799863
2.45,0.065570,0.040422,9.770729
2.46,0.097535,-0.009801,9.935345
2.47,0.149732,-0.002177,10.026202
2.48,0.298102,0.179369,10.045671
2.49,0.260160,0.167338,10.267781
2.50,0.149003,0.264645,10.140276
2.51,0.371891,0.187079,10.308572
2.52,0.616434,0.364185,10.762550
2.53,0.922769,0.411147,10.911799
2.54,1.163270,0.614725,11.164896
2.55,1.456778,0.772583,11.792276
2.56,1.495420,1.163773,11.948481
2.57,1.786247,1.066766,12.145364
2.58,1.692439,0.989135,12.320876
2.59,2.029333,1.539347,12.761346
2.60,1.884905,1.526029,12.658951
2.61,1.963400,1.521644,12.576850
2.62,2.216878,1.510344,12.507154
2.63,1.710581,1.433111,12.288604
2.64,1.348800,1.723417,11.935718
2.65,1.258700,1.406208,11.646444
2.66,0.904708,1.072986,11.249380
2.67,0.625143,1.183711,10.950715
2.68,0.794830,1.142768,10.497111
2.69,0.506779,0.870143,10.627477
2.70,0.291705,0.603788,10.025009
2.71,0.107024,0.466604,10.109951
2.72,0.047833,0.365539,9.786560
2.73,0.222742,0.566416,9.896996
2.74,0.042748,0.301416,9.789845
2.75,-0.384675,0.051395,9.863252
2.76,0.262320,0.256226,9.876589
2.77,-0.015140,0.196279,9.685641
2.78,-0.002102,0.104104,9.809925
2.79,0.082460,0.021200,10.005781
2.80,0.004137,0.006737,9.624709
2.81,0.034631,0.259043,9.687203
2.82,-0.108861,0.154869,9.925907
2.83,-0.208441,0.180525,9.815026
2.84,-0.029972,0.151170,9.824158
2.85,0.105554,0.160216,9.944974
2.86,-0.146529,0.063904,9.689548
2.87,-0.158624,0.094593,9.726883
2.88,0.072879,0.258132,9.708495
2.89,-0.130806,0.286959,9.748594
2.90,-0.127407,-0.030791,9.983754
2.91,-0.125027,0.089294,9.556950
2.92,-0.090061,0.213193,9.626794
2.93,-0.273015,0.336289,9.601673
2.94,-0.150714,0.322004,9.987993
2.95,-0.060061,0.010181,9.704629
2.96,-0.062524,0.255959,9.743802
2.97,0.048146,0.107055,9.562382
2.98,0.128521,0.222203,9.750594
2.99,0.088010,0.188117,9.907541
3.00,0.015100,-0.061697,9.820545
3.01,-0.113564,0.152240,9.768936
3.02,-0.171428,0.203010,9.563863
3.03,-0.095342,0.075818,9.735946
3.04,-0.027929,0.044425,9.801344
3.05,-0.000160,-0.119027,9.640841
3.06,-0.024499,0.147051,9.870305
3.07,-0.114168,0.085374,9.901458
3.08,-0.005442,-0.055158,9.702470
3.09,0.051320,0.011467,9.877034
3.10,0.005634,0.064066,9.758995
3.11,-0.103707,-0.026648,9.933904
3.12,-0.199689,0.035489,10.057036
3.13,-0.202177,-0.180115,9.618098
3.14,-0.180537,0.186463,9.877901
3.15,-0.067343,0.021061,9.951841
3.16,-0.035092,-0.118157,9.632238
3.17,-0.266354,-0.286751,9.686636
3.18,-0.156072,0.126660,9.684145
3.19,-0.065170,0.065095,9.746874
3.20,-0.200780,0.018748,9.715090
3.21,-0.038675,0.093099,9.737330
3.22,-0.124639,0.089835,9.883658
3.23,-0.169948,0.008618,9.504290
3.24,-0.069371,-0.043882,9.640460
3.25,-0.016704,-0.058298,9.883991
3.26,-0.146322,0.052805,9.891069
3.27,-0.043284,0.187857,9.704299
3.28,0.088139,0.035512,9.991741
3.29,0.008250,0.264964,10.189997
3.30,-0.004200,0.187301,10.126388
3.31,0.137762,0.259919,10.166378
3.32,0.434643,0.592921,10.653446
3.33,0.523613,0.611174,11.043624
3.34,0.865527,0.739727,10.989460
3.35,1.349231,0.581331,11.453488
3.36,1.225947,1.086489,11.934648
3.37,1.578485,0.960008,12.102825
3.38,2.046812,1.080169,12.087140
3.39,1.956987,0.967655,12.552796
3.40,1.906462,1.357975,12.408261
3.41,1.895193,1.246262,12.311091
3.42,1.854467,1.443233,12.086428
3.43,1.833884,1.231676,12.248159
3.44,1.351635,1.524156,11.658270
3.45,1.088420,1.277398,11.486042
3.46,0.777592,1.360363,11.184233
3.47,0.735848,0.821330,10.812993
3.48,0.363587,0.978511,10.558694
3.49,0.319709,0.424930,10.345345
3.50,0.144588,0.522577,10.135376
3.51,0.293112,0.291562,9.878892
3.52,0.041067,0.200341,9.773844
3.53,0.108975,0.097435,9.815458
3.54,-0.156109,-0.026560,9.771974
3.55,0.038154,-0.127061,9.824561
3.56,-0.128817,-0.073151,9.903593
3.57,-0.037840,-0.037877,9.788713
3.58,0.278915,0.065980,9.621987
3.59,0.127257,-0.052535,9.427212
3.60,0.002607,0.043258,9.623131
3.61,0.404906,-0.278884,9.541357
3.62,-0.085591,-0.155473,9.626434
3.63,0.167321,-0.018329,9.761851
3.64,-0.153151,-0.061333,9.739064
3.65,0.004756,-0.203867,9.986747
3.66,-0.124484,0.014141,9.793609
3.67,0.071306,-0.158699,9.992651
3.68,0.050285,-0.184909,9.824889
3.69,0.009732,-0.029614,9.876182
3.70,0.180727,-0.083511,9.673361
3.71,-0.015403,-0.143009,9.572612
3.72,0.094778,-0.142914,9.659637
3.73,0.156862,-0.200127,9.720289
3.74,-0.116819,-0.114742,9.633480
3.75,-0.025941,0.069407,9.580750
3.76,0.072965,-0.028424,9.778777
3.77,0.144693,0.062270,9.579211
3.78,0.242156,0.014408,9.504897
3.79,0.048246,-0.115434,9.562259
3.80,0.038835,-0.233839,9.686605
3.81,-0.024912,-0.140427,9.581346
3.82,0.123102,-0.101904,9.689950
3.83,0.052964,-0.101629,9.809872
3.84,0.063416,0.118053,9.813902
3.85,0.097104,0.132700,9.654935
3.86,0.193733,0.302900,9.588958
3.87,0.089901,-0.025613,9.730322
3.88,0.110555,0.295917,9.964177
3.89,0.321977,0.345524,10.088324
3.90,0.001183,0.191719,10.142857
3.91,0.418115,0.358252,10.436501
3.92,0.513724,0.550321,10.734459
3.93,0.991753,0.512641,10.696780
3.94,1.018149,0.638293,11.284293
3.95,1.244033,0.727394,11.374796
3.96,1.545304,0.674851,11.888715
3.97,1.698402,1.121675,12.150420
3.98,1.897568,1.174043,12.020158
3.99,2.071932,1.257577,12.321274
4.00,2.049345,1.537096,12.340791
4.01,2.008870,1.377125,12.206635
4.02,1.824863,1.673029,12.419202
4.03,1.631686,1.617808,12.339577
4.04,1.558806,1.455379,11.708168
4.05,1.348598,1.404431,11.528737
4.06,0.900265,1.150196,11.281481
4.07,0.939233,1.245370,10.790635
4.08,0.744340,1.030877,10.485441
4.09,0.608386,0.892555,10.230096
4.10,0.401216,0.781343,10.164481
4.11,0.347671,0.516936,10.081643
4.12,0.466558,0.301163,9.931969
4.13,0.122596,0.505849,9.865264
4.14,0.003372,0.399123,9.758432
4.15,-0.074313,0.194353,9.518109
4.16,0.308467,0.264259,9.852416
4.17,0.302442,0.334618,9.538802
4.18,-0.025798,0.298183,9.801020
4.19,-0.005751,0.078724,9.817887
4.20,0.039738,-0.042177,9.551350
4.21,0.222941,-0.028105,9.625442
4.22,-0.080917,0.088316,10.007363
4.23,-0.164899,0.298361,9.699200
4.24,0.328692,0.033420,9.539542
4.25,0.103507,0.047611,9.822577
4.26,0.117913,0.043605,9.602386
4.27,0.036058,0.052259,9.441810
4.28,0.113782,0.113028,9.783589
4.29,-0.126669,-0.041099,9.582645
4.30,-0.048793,0.240558,9.756101
4.31,0.061757,0.090769,9.597534
4.32,-0.226408,0.403138,9.810508
4.33,0.006704,-0.037911,9.737391
4.34,-0.003839,0.290762,9.349426
4.35,0.000346,0.263790,9.765624
4.36,-0.032698,0.044075,9.671819
4.37,-0.089351,0.042521,9.910973
4.38,-0.191800,-0.024365,9.768226
4.39,0.040869,-0.026907,9.819035
4.40,-0.015888,0.078107,9.613986
4.41,-0.148303,0.076407,9.603154
4.42,0.020818,-0.122771,9.710486
4.43,-0.025512,0.340174,9.663916
4.44,-0.048885,0.029117,9.902061
4.45,-0.255841,0.063311,9.693626
4.46,0.081463,-0.024650,9.543978
4.47,-0.151890,0.013413,9.599966
4.48,0.000219,-0.002631,9.851321
4.49,-0.107807,0.034738,9.693196
4.50,-0.060891,0.028041,9.686123
4.51,0.120620,0.121014,9.865871
4.52,0.042749,0.046284,9.589812
4.53,0.111195,0.098079,9.405400
4.54,0.011900,0.006906,9.599381
4.55,0.016488,0.030336,9.753144
4.56,-0.248051,-0.031875,9.684801
4.57,-0.075643,0.111958,9.501765
4.58,-0.067709,0.024820,9.862977
4.59,0.102989,-0.038315,9.744134
4.60,-0.107677,-0.047305,9.776233
4.61,-0.018170,-0.043222,9.781054
4.62,-0.025825,-0.031754,9.541065
4.63,0.083105,-0.047391,9.765821
4.64,-0.074699,-0.112823,9.851033
4.65,0.037921,0.040988,9.884216
4.66,-0.268687,0.043637,9.826142
4.67,-0.260399,0.153517,9.797608
4.68,-0.343252,-0.137668,9.483146
4.69,0.022617,0.010191,9.724920
4.70,0.006773,-0.303281,9.593726
4.71,0.031275,0.021054,9.907797
4.72,-0.159814,-0.257303,9.887204
4.73,-0.148248,-0.204541,9.596544
4.74,-0.097144,-0.050281,9.723859
4.75,0.088728,-0.168265,9.765776
4.76,0.116947,-0.188027,9.857793
4.77,0.007252,-0.158338,9.497804
4.78,-0.049871,-0.015530,9.423762
4.79,0.069171,-0.217740,9.739178
4.80,-0.123148,-0.114778,9.380177
4.81,-0.140622,-0.155976,9.757522
4.82,-0.110342,-0.014175,9.818988
4.83,-0.213342,-0.012600,9.909897
4.84,-0.117820,-0.336133,9.650462
4.85,-0.231714,0.008210,9.760972
4.86,0.024685,-0.191552,9.830412
4.87,-0.033646,-0.090715,9.575403
4.88,0.072204,-0.232297,9.868965
4.89,-0.295193,-0.075399,9.780045
4.90,0.128307,0.186172,9.657704
4.91,-0.288691,-0.104532,9.763098
4.92,-0.243769,-0.174524,9.724645
4.93,-0.174330,-0.146501,9.854218
4.94,0.057355,-0.293975,9.695407
4.95,-0.072123,0.057382,9.778536
4.96,-0.127954,-0.077504,9.660693
4.97,-0.193194,-0.239233,9.617213
4.98,-0.262459,-0.233400,9.773421
4.99,0.039418,-0.107450,9.624763
5.00,0.000303,0.004943,9.863303
5.01,0.067838,-0.242403,9.835053
5.02,-0.045647,0.032157,9.645950
5.03,-0.409015,-0.109403,9.783929
5.04,-0.239900,-0.206784,9.647182
5.05,-0.033246,-0.147825,9.531284
5.06,-0.131770,0.121769,9.673231
5.07,-0.152734,-0.250812,9.750759
5.08,-0.216227,-0.168046,9.831769
5.09,0.031804,0.038268,9.780673
5.10,-0.025132,-0.045731,9.887802
5.11,-0.017606,-0.162168,9.624351
5.12,-0.151562,0.053185,9.709970
5.13,-0.052066,0.063646,9.993919
5.14,-0.231355,-0.013181,9.494362
5.15,-0.083921,-0.121442,9.702451
5.16,-0.369130,-0.097857,9.616732
5.17,-0.251311,-0.003515,9.740408
5.18,-0.099097,-0.189844,9.707969
5.19,0.227383,0.132253,9.854126
5.20,-0.270862,0.182333,9.806636
5.21,-0.201079,-0.044573,9.589119
5.22,-0.022851,0.031943,9.690611
5.23,0.166510,0.136998,9.773990
5.24,-0.018461,0.234871,9.878578
5.25,0.044684,0.192544,10.116740
5.26,-0.076888,-0.197069,9.875584
5.27,-0.094410,-0.021204,9.636513
5.28,-0.019994,0.082176,9.766199
5.29,-0.105536,-0.031828,9.805753
5.30,0.063718,0.246737,9.708783
5.31,-0.212572,0.233588,9.848420
5.32,0.090378,-0.054670,9.465681
5.33,-0.008285,0.028840,9.862207
5.34,-0.035336,-0.036633,9.719168
5.35,-0.203283,0.034772,9.771602
5.36,-0.120247,0.035886,9.993264
5.37,0.144621,0.182067,9.612555
5.38,-0.020794,-0.034583,9.828456
5.39,0.041095,-0.237653,9.902534
5.40,-0.094416,-0.112024,9.816345
5.41,0.011068,-0.038880,9.567625
5.42,-0.146694,0.009651,9.983785
5.43,0.033338,0.114426,9.766258
5.44,0.069192,-0.034173,9.723112
5.45,0.066522,-0.046692,9.754623
5.46,-0.077083,-0.009864,9.745713
5.47,-0.006436,-0.029393,9.633714
5.48,0.102294,0.040542,9.824558
5.49,0.015634,0.037778,9.718980
5.50,0.009656,0.194281,9.897645
5.51,0.275623,-0.005243,9.877314
5.52,-0.063894,0.072260,10.033574
5.53,0.182833,0.051200,9.777483
5.54,-0.082482,0.214864,9.695790
5.55,0.137485,0.100249,9.603618
5.56,0.146659,0.245593,10.117599
5.57,0.003151,-0.018214,9.904400
5.58,-0.079022,0.114574,9.716001
5.59,-0.166680,0.051781,10.051350
5.60,-0.001222,-0.025724,10.005826
5.61,0.138888,0.114198,9.629024
5.62,-0.049701,0.331941,9.716090
5.63,0.096536,0.024733,9.808532
5.64,-0.084412,0.117161,9.686457
5.65,0.076946,-0.016147,9.838245
5.66,-0.013280,-0.019839,9.977015
5.67,0.145207,0.081813,9.725984
5.68,0.140294,0.152697,10.022225
5.69,0.124732,0.200382,10.237717
5.70,0.282810,0.278756,10.261233
5.71,0.376265,0.181541,10.370909
5.72,0.492222,0.395699,10.513461
5.73,0.975510,0.640619,10.996790
5.74,1.026268,0.543557,11.028847
5.75,1.045691,0.803024,11.564091
5.76,1.475197,1.027154,11.869706
5.77,1.878678,1.044223,12.330358
5.78,1.853804,1.315953,12.338253
5.79,2.239505,1.210660,12.511079
5.80,1.996904,1.590443,12.463434
5.81,2.120716,1.583400,12.644158
5.82,2.070626,1.562050,12.364856
5.83,1.824528,1.664719,12.058609
5.84,1.387171,1.424802,11.767481
5.85,1.199507,1.289846,11.616169
5.86,1.213065,1.400829,11.052247
5.87,0.752712,1.310583,10.753706
5.88,0.771173,0.850940,10.749871
5.89,0.441437,0.764797,10.377789
5.90,0.384058,0.755564,10.360679
5.91,0.106951,0.485610,10.047692
5.92,0.133629,0.447889,10.007080
5.93,0.056209,0.370061,9.968309
5.94,0.158593,0.127036,10.101898
5.95,0.123818,0.179795,10.067073
5.96,0.156357,0.078430,10.032349
5.97,0.034565,-0.104948,9.775789
5.98,-0.023050,-0.106096,9.722320
5.99,0.107059,-0.086675,9.965741
6.00,-0.041154,0.087387,10.051861
6.01,0.209392,0.079499,10.022372
6.02,0.063933,0.044920,9.862147
6.03,0.036238,0.000296,9.963085
6.04,0.128487,-0.009266,9.966471
6.05,0.061445,-0.031022,9.883914
6.06,-0.130851,-0.020429,9.890942
6.07,-0.061829,-0.016946,9.878703
6.08,0.189818,-0.246894,9.755563
6.09,0.070236,-0.177337,9.770783
6.10,-0.144414,-0.209916,9.769549
6.11,0.096763,0.042675,9.644784
6.12,-0.015530,0.104771,9.889590
6.13,-0.056349,-0.357340,9.864814
6.14,-0.091841,0.087605,9.978069
6.15,0.162437,-0.092657,10.048790
6.16,-0.196556,0.015823,10.058589
6.17,-0.064370,-0.047281,10.072689
6.18,0.047380,0.062784,9.769081
6.19,0.219255,-0.086453,9.675693
6.20,0.093372,-0.276182,10.007845
6.21,-0.077171,-0.125318,10.072988
6.22,0.206101,-0.049542,10.100405
6.23,-0.140326,-0.134221,9.955641
6.24,0.056484,-0.023488,9.617101
6.25,0.090009,-0.100423,9.963001
6.26,-0.060241,-0.148551,10.014823
6.27,0.154164,-0.184401,10.152915
6.28,0.049505,-0.068213,10.240394
6.29,0.256709,0.048666,10.260165
6.30,0.041919,-0.150754,10.181314
6.31,0.424555,0.068120,10.295383
6.32,0.491757,0.017950,10.739340
6.33,0.870314,0.297901,10.826743
6.34,0.946568,0.647005,11.456955
6.35,1.337950,0.505755,11.347887
6.36,1.484862,0.884922,12.001520
6.37,1.623594,1.294969,12.273119
6.38,1.905849,1.271284,12.446085
6.39,2.017563,1.238355,12.506016
6.40,2.015337,1.423587,12.402985
6.41,1.640907,1.219840,12.562438
6.42,1.680842,1.219537,12.405701
6.43,1.786137,1.394749,12.387946
6.44,1.248136,1.382600,11.817780
6.45,1.262620,1.374911,11.656442
6.46,0.999122,1.056871,11.077355
6.47,0.601624,1.011534,11.014052
6.48,0.252063,0.861733,10.361745
6.49,0.260345,0.681210,10.744538
6.50,0.450330,0.550208,10.256820
6.51,0.002112,0.331534,9.755920
6.52,-0.057529,0.359708,9.955390
6.53,-0.128364,0.260021,9.871955
6.54,0.106539,0.112597,9.863460
6.55,-0.087925,0.191004,9.880269
6.56,-0.146127,0.194925,9.824662
6.57,0.090944,0.125572,9.795517
6.58,-0.014021,-0.098428,9.743704
6.59,-0.197153,0.028337,10.019172
6.60,-0.236030,-0.097931,10.071606
6.61,0.047944,0.021833,9.867705
6.62,-0.090545,-0.097324,9.901049
6.63,-0.279763,0.167812,9.746128
6.64,-0.309010,0.112542,9.914101
6.65,-0.229990,0.161493,9.936712
6.66,-0.245709,0.154262,9.874158
6.67,-0.343288,0.000661,9.960673
6.68,-0.230369,-0.012813,9.948780
6.69,-0.209269,0.252379,9.758309
6.70,-0.154935,0.028611,10.073229
6.71,0.103422,-0.109156,9.877435
6.72,-0.131944,0.179154,10.141376
6.73,-0.120108,0.080257,9.965932
6.74,-0.038845,0.248333,10.183269
6.75,-0.128271,0.101250,10.072129
6.76,-0.051493,0.074016,9.939639
6.77,-0.065436,0.263712,9.806825
6.78,-0.083881,-0.100046,9.810056
6.79,0.234021,0.018142,9.983103
6.80,0.012134,-0.014469,9.928706
6.81,-0.226137,-0.167959,9.826383
6.82,-0.050919,0.203470,10.025640
6.83,-0.189255,0.034832,9.914593
6.84,-0.039483,0.213195,10.026768
6.85,-0.256729,0.153866,9.772875
6.86,-0.223196,0.182466,10.049498
6.87,-0.047423,0.057227,9.979856
6.88,0.032749,0.022316,10.077569
6.89,-0.024734,0.126925,10.047064
6.90,0.019669,0.228714,9.898920
6.91,-0.035223,0.115020,9.888821
6.92,-0.055729,0.040280,10.163881
6.93,-0.131618,-0.014523,9.877955
6.94,0.034396,0.160983,10.031512
6.95,0.072413,0.080602,9.887709
6.96,-0.038270,0.154158,9.704876
6.97,-0.013818,0.156841,9.833464
6.98,0.237934,0.164270,10.123925
6.99,0.112744,0.296886,10.257006
7.00,0.219835,0.386642,10.346031
7.01,0.396788,0.631012,10.624275
7.02,0.490092,0.579188,10.742916
7.03,0.600870,0.790614,10.851870
7.04,0.970545,0.628784,11.355525
7.05,1.163150,0.675460,11.631319
7.06,1.631215,1.013629,11.861786
7.07,1.726159,1.265773,12.313903
7.08,1.738985,1.385139,12.504665
7.09,2.015342,1.565851,12.568504
7.10,2.007688,1.207936,12.683555
7.11,2.091594,1.719496,12.850708
7.12,1.760716,1.626341,12.686085
7.13,1.673979,1.376191,12.272903
7.14,1.424606,1.583828,11.948799
7.15,1.207699,1.417888,11.404969
7.16,0.858337,1.316242,11.510661
7.17,0.814234,1.244692,11.102723
7.18,0.604186,1.021557,10.790250
7.19,0.551436,0.638068,10.141822
7.20,0.274333,0.649867,10.290520
7.21,0.136736,0.338176,10.136706
7.22,0.218736,0.492088,10.157955
7.23,-0.012034,0.482108,9.937019
7.24,0.188462,0.083674,9.927581
7.25,0.174124,0.087158,10.021911
7.26,0.188149,0.011577,9.812131
7.27,0.080023,0.024852,9.831580
7.28,-0.023368,0.100272,9.934245
7.29,0.049765,-0.023639,10.091897
7.30,0.084691,0.091898,10.016148
7.31,-0.025343,0.129247,10.052545
7.32,0.204795,0.123965,9.910154
7.33,0.117421,-0.150395,10.110025
7.34,-0.056280,0.143214,9.656421
7.35,0.279666,0.146636,10.182788
7.36,0.068285,0.151273,10.200408
7.37,-0.071881,-0.059452,9.962567
7.38,-0.037476,-0.135997,10.014628
7.39,0.243358,-0.168986,9.892250
7.40,0.286414,-0.188051,9.867679
7.41,0.191066,-0.059260,9.810934
7.42,0.230672,0.036389,9.889020
7.43,0.220691,0.086885,9.973128
7.44,0.143780,-0.132569,9.953485
7.45,0.118595,-0.083188,10.172219
7.46,0.145960,-0.095125,9.907516
7.47,0.171468,-0.162760,9.684413
7.48,-0.003976,-0.001958,10.122414
7.49,0.174619,-0.050237,9.720628
7.50,0.263483,-0.080094,9.812587
7.51,0.065243,-0.057247,9.928276
7.52,0.053870,-0.029308,9.947956
7.53,0.149988,-0.033212,9.686500
7.54,0.016075,-0.208963,9.783655
7.55,-0.062865,-0.003036,9.680141
7.56,0.233885,-0.081970,9.973770
7.57,0.042936,-0.166550,10.051673
7.58,0.100039,-0.087830,9.714203
7.59,0.025268,-0.075898,10.023903
7.60,0.252235,0.011528,10.014060
7.61,0.201828,-0.244627,9.790713
7.62,0.070861,0.039358,9.604644
7.63,-0.041653,-0.117160,9.731442
7.64,0.058368,-0.180726,9.797286
7.65,0.168364,-0.184194,10.095650
7.66,0.122408,-0.239491,9.862440
7.67,0.112571,-0.327529,9.737223
7.68,0.124472,-0.036374,9.898047
7.69,0.189594,0.121249,9.695159
7.70,0.092868,-0.309121,9.947666
7.71,0.151128,-0.227367,9.737928
7.72,-0.022184,-0.021196,9.757383
7.73,0.401713,-0.114698,9.925631
7.74,0.060079,-0.006698,10.117213
7.75,0.117352,-0.116416,10.178981
7.76,0.159564,-0.171047,9.724812
7.77,0.040852,-0.125422,9.785963
7.78,0.089536,-0.380914,9.940750
7.79,0.086423,-0.228823,10.031285
7.80,-0.024502,0.025839,9.563755
7.81,0.135953,0.058909,9.878019
7.82,-0.116544,0.088633,9.796650
7.83,0.289630,-0.023021,9.594538
7.84,0.172309,-0.342313,9.675741
7.85,0.151603,-0.143295,9.782493
7.86,-0.135822,0.096497,9.869246
7.87,-0.024949,0.137069,10.001171
7.88,0.234372,0.110705,9.908663
7.89,0.563215,-0.076167,9.990721
7.90,0.205766,-0.199509,9.860812
7.91,0.184099,-0.042409,9.757377
7.92,0.119855,-0.030491,9.829338
7.93,-0.047718,0.160934,9.951423
7.94,0.170462,0.005791,9.997591
7.95,-0.084105,-0.014107,9.831306
7.96,-0.100290,-0.001820,9.720903
7.97,-0.110956,0.042835,9.896937
7.98,0.155792,0.075528,9.915823
7.99,0.028607,-0.081088,10.020442
8.00,0.044348,-0.115569,9.751786
8.01,0.027107,0.181278,9.752267
8.02,-0.109455,-0.174683,9.950563
8.03,-0.058212,0.224155,9.786597
8.04,-0.055557,-0.196331,9.779614
8.05,-0.153142,-0.031939,10.017078
8.06,-0.048437,0.160004,9.648482
8.07,-0.121126,0.048507,10.127212
8.08,0.074505,-0.104528,9.752492
8.09,0.081047,0.109490,9.958516
8.10,-0.156962,0.071107,9.820852
8.11,-0.040775,0.041755,9.872981
8.12,0.214101,-0.002718,9.797104
8.13,-0.129755,0.072321,9.952715
8.14,0.035710,0.010803,9.783066
8.15,-0.006228,0.376767,9.750374
8.16,0.108875,0.059634,10.083346
8.17,0.009829,0.047211,9.832481
8.18,-0.080707,0.030498,9.732657
8.19,-0.024229,0.311960,9.617500
8.20,-0.025728,-0.094939,10.086203
8.21,-0.049705,0.147691,9.746634
8.22,-0.200157,0.078435,10.111440
8.23,0.104194,-0.061294,9.877500
8.24,0.079936,0.013359,9.840540
8.25,-0.176340,0.151582,9.843189
8.26,-0.090065,0.011481,10.128517
8.27,-0.083865,0.147774,9.510246
8.28,-0.198445,0.325297,9.846036
8.29,-0.286415,0.139196,9.777770
8.30,-0.145534,-0.055022,9.783936
8.31,-0.110416,0.018208,9.833542
8.32,-0.243100,0.085747,9.774232
8.33,-0.051335,0.077647,9.836715
8.34,0.064637,0.137825,9.805945
8.35,0.023904,0.156492,9.624217
8.36,-0.094504,0.325828,9.860376
8.37,-0.302209,0.116636,9.906102
8.38,0.002564,-0.022511,9.728835
8.39,-0.067614,0.252637,10.065101
8.40,-0.036018,0.263930,9.989447
8.41,0.143737,0.138211,9.919493
8.42,-0.189122,0.078470,9.916669
8.43,-0.436564,0.180234,9.803303
8.44,-0.219333,0.077469,9.957758
8.45,-0.035815,-0.146834,10.016749
8.46,-0.092018,0.164312,9.908847
8.47,-0.242121,0.200405,9.714765
8.48,-0.267491,0.262709,9.787933
8.49,-0.140443,-0.001658,9.872688
8.50,-0.248069,0.109247,9.908546
8.51,-0.036591,0.107744,9.779305
8.52,-0.148850,0.083991,9.709692
8.53,-0.175026,0.083110,10.009729
8.54,-0.190939,0.069219,9.636714
8.55,-0.068425,0.085473,9.653954
8.56,-0.094822,0.144118,9.598847
8.57,-0.075516,0.196728,9.651455
8.58,-0.077831,-0.045515,9.957091
8.59,-0.107688,0.019425,9.960694
8.60,-0.222460,-0.015839,9.769929
8.61,-0.185472,-0.038309,9.848702
8.62,-0.144412,-0.169715,9.776673
8.63,0.151663,0.021701,9.610197
8.64,-0.257015,0.070859,10.086543
8.65,-0.144313,-0.010754,9.967410
8.66,-0.081012,0.001285,9.823508
8.67,-0.127862,0.047068,9.653013
8.68,0.038866,0.160694,9.740299
8.69,-0.125471,-0.064491,9.673807
8.70,-0.114931,-0.160161,9.783371
8.71,0.012738,-0.035827,9.812066
8.72,0.134138,0.195701,9.719892
8.73,0.087722,-0.174919,9.563011
8.74,-0.095509,0.037204,10.064104
8.75,-0.082887,0.093039,9.797865
8.76,-0.069074,-0.334744,9.827547
8.77,-0.054668,-0.006450,9.703531
8.78,-0.171487,0.012172,9.543098
8.79,0.045268,-0.096536,9.749370
8.80,-0.039363,-0.145733,9.715326
8.81,-0.066077,-0.141961,9.860048
8.82,-0.208884,-0.112232,9.888842
8.83,-0.042948,-0.108962,9.872489
8.84,-0.268951,-0.128808,9.910873
8.85,-0.098351,-0.104540,10.038454
8.86,-0.075653,0.091917,9.864030
8.87,0.057834,-0.176984,10.002186
8.88,0.296269,-0.211579,9.978356
8.89,0.208057,0.185065,9.734095
8.90,0.409276,0.074061,10.107515
8.91,0.441275,0.124442,10.181944
8.92,0.662426,0.250058,10.559317
8.93,0.948150,0.399452,10.687654
8.94,0.863714,0.439363,11.194347
8.95,1.098823,0.704258,11.581405
8.96,1.517375,0.677073,11.946629
8.97,1.658343,0.905454,12.309511
8.98,1.864357,0.816245,12.093294
8.99,1.925688,1.344768,12.319070
9.00,1.927033,1.277866,12.951439
9.01,2.156929,1.439736,12.626615
9.02,1.719742,1.437410,12.356063
9.03,1.761847,1.425970,12.082354
9.04,1.527581,1.299399,11.763576
9.05,1.039376,1.252686,11.165096
9.06,0.893010,0.969313,10.991540
9.07,0.693677,0.804445,10.771207
9.08,0.649755,0.784372,10.413523
9.09,0.381005,0.566572,10.206690
9.10,0.292938,0.678533,10.470917
9.11,0.038711,0.425202,9.946778
9.12,0.430370,0.183878,9.928426
9.13,0.118787,0.145490,9.860893
9.14,0.144819,0.120686,9.868987
9.15,0.005654,0.040275,9.694506
9.16,-0.015056,0.039646,9.920854
9.17,0.289942,-0.013759,9.799624
9.18,-0.169826,-0.208096,9.552313
9.19,0.094816,-0.311064,9.714574
9.20,-0.082064,-0.104037,9.703779
9.21,0.016996,0.005702,9.696186
9.22,-0.008568,-0.104717,9.797179
9.23,-0.047891,0.089272,9.814032
9.24,0.077061,-0.061452,9.796866
9.25,-0.233043,0.111085,9.771384
9.26,0.039494,0.090984,9.735349
9.27,0.068659,0.083760,9.421629
9.28,-0.081571,-0.181757,9.831154
9.29,0.265080,-0.030078,9.790082
9.30,0.014010,0.119901,9.583320
9.31,0.058597,0.011226,9.759954
9.32,0.017674,0.050500,9.810881
9.33,0.080493,-0.177096,9.883654
9.34,0.248692,0.225211,9.790645
9.35,0.389804,-0.094474,9.763766
9.36,0.183742,-0.233274,9.850850
9.37,0.225955,-0.030459,9.674985
9.38,0.302426,-0.276309,9.775253
9.39,0.127360,-0.106933,9.630434
9.40,0.287055,0.336526,9.872948
9.41,0.195142,-0.009301,9.492859
9.42,0.119456,-0.127258,9.834423
9.43,0.147729,0.056456,9.726539
9.44,-0.106825,-0.042538,9.866938
9.45,0.157228,0.184353,9.636531
9.46,-0.045569,-0.005512,9.782518
9.47,-0.027014,0.161524,9.817862
9.48,0.235143,0.028689,9.931650
9.49,0.143567,0.527548,9.815751
9.50,0.368797,0.339970,10.181151
9.51,0.510839,0.342634,10.008558
9.52,0.675801,0.423550,10.397611
9.53,0.739103,0.509033,10.544443
9.54,1.177420,0.617469,11.190973
9.55,1.297411,0.760436,11.466195
9.56,1.599155,1.209964,11.808741
9.57,1.619654,1.095448,12.256481
9.58,1.916168,1.050172,12.251785
9.59,2.181945,1.291012,12.541014
9.60,2.204725,1.639811,12.520197
9.61,1.951352,1.560707,12.443288
9.62,1.865618,1.597482,12.478321
9.63,1.634871,1.734917,12.340763
9.64,1.454524,1.442323,11.683244
9.65,1.124094,1.517449,11.525340
9.66,1.033675,1.239695,11.117830
9.67,0.901090,1.248485,10.807401
9.68,0.534010,0.982687,10.523223
9.69,0.454630,0.850514,10.217552
9.70,0.311397,0.834997,9.587073
9.71,0.369045,0.696318,10.173863
9.72,0.100790,0.473166,9.769915
9.73,0.058230,0.340962,9.771519
9.74,-0.005500,0.511966,9.734734
9.75,-0.060831,0.329904,9.631422
9.76,0.125954,0.165813,9.760458
9.77,0.037452,0.099876,9.712591
9.78,0.054063,0.276124,9.614193
9.79,0.195717,0.148947,9.733245
9.80,0.198646,0.102530,9.706699
9.81,-0.162344,0.126524,9.840803
9.82,0.109515,0.146144,9.523132
9.83,0.055482,0.093129,9.598059
9.84,-0.030348,0.239536,9.812455
9.85,0.060993,0.241816,9.621489
9.86,-0.188886,0.150310,9.584739
9.87,0.190387,0.247273,9.628754
9.88,0.073238,0.079096,9.697451
9.89,-0.095819,0.156586,9.698190
9.90,-0.065693,0.189829,9.682620
9.91,-0.203276,0.186999,9.568248
9.92,-0.040028,0.169929,9.820734
9.93,-0.063733,0.130927,9.898420
9.94,-0.168263,0.285110,9.445562
9.95,0.080525,-0.019528,9.495815
9.96,0.137129,0.021530,9.854022
9.97,-0.022739,0.009315,9.933743
9.98,-0.059436,-0.014166,9.416310
9.99,0.026260,-0.213551,9.829126
10.00,-0.031238,0.185509,9.945137
10.01,-0.161233,-0.106578,9.596561
10.02,-0.111333,0.033960,9.941066
10.03,-0.068675,-0.158372,9.699727
10.04,-0.000699,0.087930,9.777171
10.05,-0.022199,-0.075869,9.647205
10.06,0.016341,-0.107662,9.912908
10.07,-0.166461,0.069583,9.929792
10.08,0.137590,-0.010546,10.116712
10.09,0.120883,0.044147,10.169192
10.10,0.516830,0.187922,10.096647
10.11,0.286392,0.334493,10.708753
10.12,0.529351,0.229780,10.687565
10.13,1.022020,0.316962,10.846991
10.14,0.926198,0.563488,10.944261
10.15,1.131943,0.763408,11.205558
10.16,1.258547,1.019841,11.552922
10.17,1.776384,0.861386,11.930595
10.18,1.627457,1.088528,12.500654
10.19,1.929929,1.386180,12.536420
10.20,1.859508,1.572978,12.438375
10.21,1.852169,1.273509,12.450369
10.22,1.588112,1.320996,12.274074
10.23,1.742831,1.431170,12.176805
10.24,1.328548,1.252408,11.636847
10.25,0.975414,1.132312,11.474534
10.26,1.030678,1.127203,11.132851
10.27,0.595775,1.139967,10.660614
10.28,0.500788,0.644249,10.730072
10.29,0.400354,0.828650,10.242655
10.30,0.230282,0.435030,9.970555
10.31,-0.183769,0.414032,10.099677
10.32,0.097070,0.448954,9.896803
10.33,-0.043130,0.201177,9.885222
10.34,-0.099342,0.048992,9.623131
10.35,-0.090683,0.110526,9.879007
10.36,-0.281216,-0.041839,10.055779
10.37,-0.070759,0.008523,9.567509
10.38,-0.260570,-0.101699,9.790303
10.39,-0.132541,0.010659,9.629295
10.40,-0.079956,-0.269955,10.115453
10.41,0.030245,-0.230251,9.912720
10.42,-0.196602,-0.280905,9.779226
10.43,0.076547,-0.119911,9.568533
10.44,0.016744,-0.296703,9.603160
10.45,-0.147508,-0.195319,9.846494
10.46,-0.228007,-0.243728,9.552093
10.47,-0.267077,0.068657,9.557326
10.48,-0.059957,-0.225515,9.745768
10.49,-0.179680,-0.258460,9.764069
10.50,0.054188,-0.071462,9.799462
10.51,-0.169699,0.104197,9.685600
10.52,-0.194553,-0.108893,9.876837
10.53,-0.056650,-0.096151,9.628254
10.54,-0.165123,0.067040,9.837538
10.55,-0.079785,0.021377,9.780691
10.56,0.039592,-0.028944,9.835720
10.57,-0.062482,-0.145690,9.918031
10.58,-0.059765,-0.016749,9.689734
10.59,-0.047306,-0.230263,9.661866
10.60,-0.272652,-0.137174,9.518985
10.61,-0.019933,0.114210,9.473651
10.62,-0.045155,0.103562,9.732632
10.63,0.045484,0.004820,9.743180
10.64,0.013790,-0.274101,9.607152
10.65,-0.080314,-0.182377,9.638228
10.66,0.070701,-0.113659,9.974449
10.67,-0.085344,-0.047391,9.884773
10.68,-0.017552,-0.171445,9.586527
10.69,-0.081475,-0.045517,9.702225
10.70,0.014401,0.201586,9.822002
10.71,-0.083013,0.043103,9.678472
10.72,0.163092,0.026765,9.653977
10.73,0.210732,-0.116100,9.720865
10.74,0.076821,-0.185182,9.921942
10.75,0.160237,-0.130423,9.935681
10.76,-0.206062,-0.179137,9.668363
10.77,-0.188534,0.036776,9.836848
10.78,-0.053146,0.079162,9.772524
10.79,-0.006184,-0.077486,9.633323
10.80,-0.031476,0.061273,9.733945
10.81,-0.201298,0.224884,9.599607
10.82,0.137403,0.288507,9.940495
10.83,0.261172,0.150900,9.996086
10.84,0.159839,0.042214,9.722336
10.85,0.139828,0.156378,9.690025
10.86,0.040133,0.234491,9.929623
10.87,-0.084743,-0.164278,9.953329
10.88,0.028518,0.258593,9.628141
10.89,0.275860,0.019380,9.764526
10.90,-0.015702,0.024342,9.778099
10.91,-0.024743,0.049567,9.679542
10.92,0.166008,0.133995,9.842591
10.93,0.177214,-0.034539,9.691667
10.94,-0.062180,0.067652,9.715132
10.95,0.011340,0.167667,9.777691
10.96,-0.014412,0.133446,9.584524
10.97,0.057223,0.155273,9.506205
10.98,0.184288,0.072827,9.923784
10.99,-0.041714,0.196841,9.692700
11.00,0.188387,0.242020,10.096348
11.01,0.072615,0.236234,10.074647
11.02,0.342277,0.169141,9.728807
11.03,0.104035,0.231413,10.128307
11.04,0.056708,0.223942,9.933227
11.05,0.139786,0.441013,9.712750
11.06,0.032760,0.266165,9.442765
11.07,-0.139906,0.109261,9.901694
11.08,0.048884,0.010169,9.810864
11.09,0.049117,0.087643,9.868003
11.10,-0.109174,0.078324,9.776706
11.11,0.075073,0.178419,9.649734
11.12,-0.162383,0.031682,9.751222
11.13,0.045679,0.257195,9.911065
11.14,0.118260,-0.054433,9.763654
11.15,0.102188,-0.085644,9.763938
11.16,0.042632,0.091757,9.602812
11.17,0.082999,0.004350,9.829423
11.18,0.000366,-0.048268,9.662113
11.19,0.096830,0.023319,9.947504
11.20,0.103467,0.005227,9.717262
11.21,-0.010685,0.094456,9.779762
11.22,0.130202,0.015222,10.125242
11.23,0.130068,0.021232,9.780485
11.24,0.079246,0.081413,9.762845
11.25,0.390096,0.199602,9.907631
11.26,0.082947,0.250115,9.576823
11.27,0.066464,0.086936,10.002987
11.28,0.049307,0.091701,9.968137
11.29,-0.016616,0.037950,9.903517
11.30,0.181987,0.112852,9.358407
11.31,0.016994,0.096983,9.795987
11.32,0.030735,0.204207,9.655204
11.33,0.033727,-0.186685,9.991879
11.34,-0.020567,0.006589,9.982957
11.35,-0.113310,0.070129,9.891012
11.36,0.040345,0.020907,9.669343
11.37,0.199661,-0.094056,10.048064
11.38,0.117348,-0.142734,9.803227
11.39,0.279718,0.104466,10.093773
11.40,0.181191,-0.088622,9.879249
11.41,0.152471,-0.213883,9.914117
11.42,0.313925,0.093997,9.779786
11.43,0.074657,0.040808,10.042262
11.44,0.092087,-0.033623,9.931525
11.45,0.081245,-0.134870,10.049401
11.46,0.265880,-0.044091,9.873298
11.47,0.078835,0.110103,9.842899
11.48,-0.001446,-0.234746,9.933839
11.49,0.144591,-0.233788,10.053508
11.50,-0.026246,-0.126473,9.994921
11.51,0.133270,-0.059262,9.872950
11.52,0.116381,-0.120426,9.594603
11.53,0.041378,0.011589,9.969077
11.54,0.129314,0.060572,9.655208
11.55,-0.119882,-0.041029,9.862525
11.56,0.075375,-0.011465,9.842408
11.57,-0.002612,-0.050135,9.661113
11.58,0.393428,-0.085542,9.912730
11.59,0.065633,-0.245623,10.163156
11.60,-0.027712,-0.217279,9.818753
11.61,-0.124673,-0.259356,9.970700
11.62,0.194192,-0.118188,10.194225
11.63,-0.007685,-0.075404,9.986140
11.64,-0.063909,-0.279882,9.776034
11.65,0.068106,-0.099730,9.900425
11.66,0.102381,-0.215709,9.935476
11.67,0.097124,-0.240996,10.069817
11.68,0.020029,-0.189506,10.039959
11.69,0.033351,-0.250453,9.483109
11.70,0.038664,-0.044484,9.751917
11.71,0.047746,-0.138485,9.862868
11.72,0.054914,-0.021290,9.731408
11.73,0.131808,-0.172877,9.356405
11.74,0.003788,-0.168629,9.773692
11.75,-0.104450,0.104822,9.875626
11.76,-0.027193,-0.314537,9.803435
11.77,0.077144,0.034835,9.738239
11.78,-0.231110,0.079958,9.884443
11.79,-0.233813,-0.025719,9.927488
11.80,0.086698,-0.156059,9.814661
11.81,0.155575,0.056286,10.073109
11.82,-0.181976,-0.151853,9.889936
11.83,-0.021373,-0.195996,9.760626
11.84,-0.084610,-0.155720,9.725976
11.85,-0.071156,-0.175148,9.854358
11.86,-0.006338,-0.217692,10.040807
11.87,-0.201240,0.031951,9.770356
11.88,-0.182000,-0.191005,9.969830
11.89,-0.088264,-0.098482,9.900369
11.90,-0.072477,-0.264711,10.166899
11.91,-0.192998,-0.084103,9.943186
11.92,0.034091,-0.222669,9.791494
11.93,-0.113484,-0.221596,9.993022
11.94,-0.116630,-0.088865,9.998408
11.95,-0.034648,0.055433,9.835688
11.96,-0.086511,-0.014057,9.728964
11.97,0.027066,-0.001174,9.967611
11.98,-0.187743,-0.073089,9.902091
11.99,-0.245630,-0.092886,9.681504
12.00,-0.117236,0.047328,9.930066
12.01,-0.074855,-0.110090,9.805854
12.02,-0.232899,0.062814,9.683439
12.03,-0.252363,0.116264,9.846906
12.04,-0.065678,-0.127680,10.076378
12.05,-0.180105,-0.104655,10.066455
12.06,-0.264983,-0.081368,10.030417
12.07,0.023757,-0.186450,9.936099
12.08,-0.169191,-0.061250,9.982340
12.09,0.043421,0.156755,9.913251
12.10,-0.092208,-0.119387,9.745233
12.11,-0.061207,0.170595,9.773659
12.12,-0.122797,-0.034978,9.815901
12.13,-0.416758,0.276148,10.097562
12.14,-0.235158,-0.053972,10.052562
12.15,-0.114316,0.015890,9.751084
12.16,-0.055832,-0.070801,9.910172
12.17,-0.314610,-0.038931,9.846751
12.18,-0.106411,0.209255,9.881808
12.19,-0.234662,0.110596,9.828871
12.20,-0.071727,0.181975,10.101096
12.21,-0.101982,-0.094612,9.902023
12.22,-0.010087,0.146447,9.935290
12.23,0.029177,-0.044239,9.936770
12.24,-0.043180,-0.083830,9.761820
12.25,0.005689,0.109453,9.921227
12.26,-0.138782,0.112208,10.055063
12.27,0.242966,0.094990,10.112813
12.28,-0.241019,0.178314,9.746226
12.29,-0.156931,0.200459,9.694589
12.30,0.015834,0.275222,9.916152
12.31,-0.000620,-0.040972,10.062986
12.32,-0.030969,0.284912,9.958279
12.33,-0.006820,0.333128,10.003399
12.34,-0.336182,0.065659,9.717932
12.35,0.106366,-0.088488,9.828486
12.36,-0.106910,-0.052399,9.601293
12.37,0.069068,0.059849,9.888973
12.38,-0.322361,0.358376,9.606090
12.39,-0.045356,0.119892,10.095800
12.40,-0.141479,0.044695,10.127036
12.41,-0.002831,0.037174,9.929173
12.42,-0.030978,-0.038891,9.697831
12.43,-0.022560,0.224947,9.962287
12.44,-0.190938,0.108859,10.170048
12.45,-0.068005,0.371544,9.976443
12.46,-0.080018,0.194355,10.075795
12.47,0.003878,0.217718,9.842019
12.48,0.066063,0.087980,9.788005
12.49,-0.031627,-0.015230,9.900073
12.50,-0.199797,0.009282,9.640261
12.51,-0.030663,-0.052019,10.226966
12.52,0.272893,0.219482,9.929526
12.53,0.160269,0.061761,10.031292
12.54,-0.390949,0.219749,9.845290
12.55,-0.023146,0.119051,9.693818
12.56,0.084426,0.064713,10.109412
12.57,-0.045938,-0.043537,9.752384
12.58,-0.075828,0.129892,9.958603
12.59,-0.049090,0.064359,9.971928
12.60,0.052997,0.195943,9.920654
12.61,-0.146860,-0.000626,9.801434
12.62,0.138645,0.157568,9.892427
12.63,-0.004156,0.280436,9.784562
12.64,-0.100410,0.118512,10.038767
12.65,0.160436,0.185902,10.019686
12.66,-0.138986,0.171342,9.960926
12.67,0.011660,0.348712,9.923921
12.68,0.057290,0.193268,10.360137
12.69,0.452152,0.272482,9.974392
12.70,0.208898,0.238538,10.070146
12.71,0.161002,0.221136,10.449828
12.72,0.513399,0.258400,10.649298
12.73,0.835739,0.662997,11.111168
12.74,1.101319,0.514236,11.359701
12.75,1.523202,0.862122,11.608449
12.76,1.661271,0.967350,12.008972
12.77,1.736376,1.172240,12.311634
12.78,1.785637,1.135970,12.784251
12.79,2.204688,1.219991,12.684697
12.80,2.008154,1.449999,12.608948
12.81,1.936712,1.424438,12.676263
12.82,1.854323,1.327079,12.121633
12.83,1.581182,1.681383,12.237302
12.84,1.460115,1.288131,12.088932
12.85,1.251336,1.163456,11.684859
12.86,1.129979,1.125870,11.306529
12.87,0.775314,1.159106,11.043136
12.88,0.477623,0.593656,10.833867
12.89,0.279282,0.838954,10.654078
12.90,0.373959,0.441680,10.341523
12.91,0.266808,0.448572,10.104165
12.92,0.128015,0.218368,9.732213
12.93,0.096178,0.439662,10.130683
12.94,0.172294,0.135116,10.025555
12.95,0.276789,-0.028254,9.949804
12.96,0.007647,-0.027984,9.817175
12.97,0.107659,-0.017305,10.039972
12.98,0.210266,-0.033121,9.863905
12.99,0.001818,-0.020663,9.892263
13.00,0.093454,-0.086821,9.887534
13.01,0.091452,-0.261298,9.957214
13.02,-0.060571,-0.143506,9.732566
13.03,0.117758,-0.034632,9.971395
13.04,0.102004,-0.191298,9.791027
13.05,0.165411,-0.032787,9.795267
13.06,-0.043155,-0.111706,10.014543
13.07,0.100824,-0.143173,9.750628
13.08,0.265674,0.025086,10.012928
13.09,0.349285,-0.327641,9.902743
13.10,0.253601,-0.200674,9.657088
13.11,-0.041383,0.027955,10.078158
13.12,0.153754,0.099628,9.929842
13.13,0.041292,0.154557,9.940850
13.14,0.132862,-0.113251,10.025942
13.15,0.005534,-0.063625,10.094065
13.16,-0.108129,-0.019511,9.911555
13.17,0.055319,0.036625,9.969059
13.18,0.182430,-0.077350,9.933822
13.19,0.129220,-0.002078,9.833064
13.20,0.141843,-0.056100,9.658584
13.21,0.118170,-0.046427,9.909545
13.22,0.139359,-0.216889,10.071689
13.23,0.152857,-0.143553,9.959479
13.24,0.054748,-0.163914,9.727540
13.25,0.095950,-0.240755,10.029795
13.26,0.293391,-0.292946,9.831981
13.27,0.099360,-0.141990,9.581605
13.28,0.085484,-0.118912,10.016230
13.29,0.090784,-0.070333,9.740732
13.30,0.050462,-0.011387,10.122027
13.31,0.022868,-0.049836,10.033630
13.32,0.099374,-0.096373,9.842395
13.33,0.014291,-0.166691,9.942042
13.34,0.060741,0.059708,10.224248
13.35,-0.009021,-0.042557,10.038349
13.36,0.113563,-0.061748,9.955215
13.37,0.196341,-0.004009,10.365188
13.38,0.142137,-0.031774,10.038067
13.39,-0.010777,0.042524,10.193911
13.40,0.390926,0.103531,10.110386
13.41,0.456597,0.218285,10.181207
13.42,0.480176,0.431472,10.598791
13.43,0.883563,0.520022,10.915849
13.44,0.842654,0.791938,11.267618
13.45,1.372238,0.900064,11.357142
13.46,1.475869,1.145223,11.982338
13.47,1.425423,1.133229,12.078125
13.48,1.891437,1.277925,12.524562
13.49,1.932089,1.282365,12.729045
13.50,1.950218,1.540599,12.597207
13.51,1.885496,1.428495,12.461174
13.52,1.841161,1.356786,12.651357
13.53,1.619069,1.700962,12.310448
13.54,1.232796,1.312700,11.902936
13.55,1.365555,1.425150,11.751262
13.56,0.940572,1.149185,11.220908
13.57,0.655730,1.253755,10.809289
13.58,0.410161,1.124673,10.482494
13.59,0.474353,0.890934,10.382188
13.60,0.097513,0.838626,10.329074
13.61,0.173184,0.564565,10.284568
13.62,0.018126,0.722986,10.000413
13.63,-0.022400,0.453783,10.104033
13.64,-0.123495,0.183576,9.863336
13.65,-0.086240,0.244059,9.758372
13.66,-0.024239,0.175969,9.669448
13.67,-0.006017,0.134751,9.772278
13.68,-0.134772,-0.054099,9.660088
13.69,-0.056101,0.178225,10.115685
13.70,0.057605,-0.042342,9.893642
13.71,-0.251869,-0.183445,9.817122
13.72,-0.056182,0.076276,10.070240
13.73,-0.172438,0.026219,9.645627
13.74,-0.187467,0.013713,9.807587
13.75,-0.032533,-0.254708,10.105608
13.76,-0.131910,0.016258,9.804364
13.77,-0.215039,0.098185,10.165961
13.78,0.087432,0.043456,9.932269
13.79,0.036555,0.166381,10.003991
13.80,-0.308018,0.287146,10.006922
13.81,-0.255267,0.181883,9.819135
13.82,-0.009221,0.242736,9.749434
13.83,-0.116625,0.252070,9.800495
13.84,0.095724,-0.004122,9.677360
13.85,-0.012185,0.169770,9.805172
13.86,-0.051900,0.235217,9.812678
13.87,-0.212026,0.062027,10.048700
13.88,-0.031847,0.017889,9.894239
13.89,-0.245123,0.174815,10.141054
13.90,0.063701,-0.068084,9.507347
13.91,-0.042639,-0.021895,9.639276
13.92,-0.191719,0.028430,9.761028
13.93,0.005999,0.163713,10.022950
13.94,0.183378,0.139449,9.805615
13.95,-0.102154,0.244124,9.628703
13.96,0.006891,0.021802,9.823204
13.97,-0.083031,0.034671,9.728509
13.98,0.022858,0.243349,9.761784
13.99,-0.102906,0.125390,10.327406
14.00,0.170617,0.204089,10.127180
14.01,0.301047,0.125674,10.374703
14.02,0.672105,0.473439,10.560717
14.03,0.435622,0.731735,10.809770
14.04,0.840567,0.548122,11.038207
14.05,1.268891,0.932128,11.446676
14.06,1.325146,0.947634,11.871199
14.07,1.552562,0.887940,12.327025
14.08,1.649662,1.128324,12.505921
14.09,1.752859,1.238249,12.361337
14.10,1.686339,1.404869,12.724745
14.11,1.791514,1.548149,12.596370
14.12,1.635425,1.734911,12.281423
14.13,1.594022,1.315130,12.147318
14.14,1.268605,1.362824,11.895318
14.15,1.067954,1.212782,11.485770
14.16,0.833405,1.040007,11.209957
14.17,0.660832,1.057007,10.708798
14.18,0.410566,0.890107,10.835169
14.19,0.188319,0.516575,10.060616
14.20,0.203016,0.588223,10.235374
14.21,0.230206,0.306420,10.074804
14.22,0.054252,0.334324,10.020611
14.23,-0.076128,0.385496,9.768532
14.24,-0.043666,0.207293,9.990568
14.25,-0.289873,0.108555,9.786273
14.26,-0.068157,-0.025860,9.619913
14.27,-0.102535,0.008255,9.623595
14.28,-0.166835,0.040228,9.788948
14.29,-0.143824,0.008195,9.544711
14.30,-0.100675,-0.074073,10.018172
14.31,0.070253,-0.046843,9.911416
14.32,0.085073,-0.238975,10.019085
14.33,-0.154330,-0.175335,10.003226
14.34,-0.102010,-0.007301,9.711926
14.35,-0.095772,0.004676,9.638486
14.36,0.063716,-0.088715,9.384320
14.37,-0.012694,0.074376,9.701362
14.38,-0.015709,-0.044954,10.004461
14.39,0.040852,-0.136421,9.640412
14.40,-0.091697,-0.257084,9.725972
14.41,0.146936,0.059917,9.676777
14.42,-0.013524,-0.022066,9.805980
14.43,-0.112592,0.099765,9.932603
14.44,-0.033995,0.142707,9.536139
14.45,0.144845,-0.272782,9.562026
14.46,-0.050548,-0.273254,9.957934
14.47,0.117871,-0.463253,9.851537
14.48,-0.067668,-0.009748,9.711703
14.49,-0.081065,-0.041204,9.986125
14.50,0.093395,-0.108026,9.555154
14.51,-0.087222,-0.266422,9.875760
14.52,0.119750,-0.129245,9.734978
14.53,0.066605,-0.095422,9.828597
14.54,-0.077085,-0.022438,9.408637
14.55,0.022476,-0.082141,9.705506
14.56,-0.031538,-0.033535,9.844331
14.57,0.079417,-0.126141,9.731497
14.58,0.267255,0.032713,9.915298
14.59,-0.000634,-0.030848,9.909811
14.60,0.110983,-0.246454,9.603770
14.61,0.052886,0.065537,9.852548
14.62,0.055803,0.048965,9.597446
14.63,0.035992,-0.038975,9.743220
14.64,-0.044241,-0.057675,9.826764
14.65,0.101630,0.111336,9.617224
14.66,0.029454,-0.279847,9.843601
14.67,-0.041859,0.069121,9.661959
14.68,0.190951,-0.132778,9.650699
14.69,0.083583,0.060139,9.830225
14.70,0.046695,-0.052336,9.613565
14.71,0.237151,-0.211290,9.605762
14.72,-0.141799,-0.116949,9.875008
14.73,0.233361,0.070134,9.743782
14.74,-0.023004,-0.072695,9.524356
14.75,0.109900,-0.116946,9.847082
14.76,0.015744,-0.112556,9.669737
14.77,-0.022755,0.045165,9.529620
14.78,0.247260,0.183509,9.374409
14.79,0.313821,-0.278079,9.851313
14.80,0.065900,0.320347,9.603859
14.81,0.133966,0.014186,9.549533
14.82,0.101698,0.064856,9.812622
14.83,0.303557,-0.051620,9.835362
14.84,-0.156759,0.005811,9.611814
14.85,0.142880,0.034823,9.849247
14.86,0.011060,-0.108707,10.008641
14.87,-0.183827,-0.074070,9.908980
14.88,0.056079,0.170140,9.886698
14.89,0.321445,-0.152969,9.763442
14.90,0.021170,0.091488,9.656869
14.91,0.194886,-0.000729,9.710703
14.92,0.243813,-0.066474,9.779779
14.93,0.098308,0.290418,9.541584
14.94,0.114026,-0.055892,9.609495
14.95,-0.106764,-0.072226,9.516908
14.96,0.012755,0.045555,9.749315
14.97,0.206920,-0.019773,9.727625
14.98,0.104628,0.077530,9.624238
14.99,0.140579,0.099560,9.830120
15.00,0.111513,0.113049,9.568650
15.01,0.357496,0.073823,9.617974
15.02,0.041602,0.008044,9.823493
15.03,0.284612,0.172930,9.843935
15.04,0.106571,0.085536,9.602192
15.05,0.292334,0.042475,9.745786
15.06,-0.059594,0.282343,9.603985
15.07,0.107831,0.092761,9.685121
15.08,0.036597,0.240706,9.732628
15.09,0.098643,0.259006,9.790698
15.10,0.226561,0.268190,9.756473
15.11,0.123206,0.198252,9.750038
15.12,0.221976,0.116638,9.560598
15.13,-0.007206,0.110185,9.765752
15.14,-0.027917,0.089484,9.788361
15.15,0.070274,-0.140591,9.807493
15.16,0.061140,0.206100,9.610153
15.17,0.040834,0.149334,9.838924
15.18,-0.054616,0.218964,9.526198
15.19,0.201469,0.105511,9.650178
15.20,0.011232,0.198729,9.671814
15.21,0.222979,-0.047202,9.533556
15.22,0.050393,-0.023313,9.669514
15.23,0.123632,-0.181493,9.741153
15.24,0.109647,0.097942,9.454483
15.25,-0.059340,0.019531,9.654793
15.26,0.080440,0.001763,9.465244
15.27,0.264536,0.148031,9.995819
15.28,0.060050,0.054288,9.739749
15.29,0.134694,-0.069368,9.727626
15.30,0.106387,0.405014,9.742522
15.31,0.056665,0.092030,9.794699
15.32,0.038798,-0.036882,9.847056
15.33,0.078681,0.009148,9.491277
15.34,0.101163,0.064993,9.893672
15.35,-0.156135,0.060802,9.884749
15.36,0.032349,0.233981,9.701144
15.37,-0.022873,0.063916,9.693921
15.38,-0.051221,0.291644,9.276281
15.39,0.147829,0.012555,9.536646
15.40,-0.099105,0.110908,9.783593
15.41,-0.181927,0.177539,9.879202
15.42,0.077522,0.193369,9.813328
15.43,-0.191799,0.202320,9.700878
15.44,-0.256068,0.007105,9.981301
15.45,0.080944,0.033854,9.852616
15.46,-0.012301,-0.268324,9.656980
15.47,0.022117,0.000318,10.017849
15.48,-0.090922,0.149372,9.559141
15.49,-0.207135,0.120586,9.506809
15.50,-0.186427,-0.002897,9.654187
15.51,-0.079870,0.205879,9.607220
15.52,-0.202913,-0.049602,9.662639
15.53,-0.016336,-0.094954,9.825774
15.54,-0.111571,-0.070674,9.709608
15.55,-0.036699,-0.154637,9.713541
15.56,-0.043043,0.049342,9.723285
15.57,-0.017928,0.003921,9.391686
15.58,-0.007012,0.037214,9.503648
15.59,-0.110745,-0.090919,9.662226
15.60,-0.049844,-0.053288,9.598557
15.61,-0.045957,-0.312756,9.684526
15.62,-0.368014,-0.011118,9.913975
15.63,-0.001141,-0.049205,9.707407
15.64,-0.062815,-0.197801,9.533171
15.65,-0.015109,-0.082831,9.607697
15.66,-0.239104,-0.105600,9.958679
15.67,-0.124363,0.132830,9.934228
15.68,-0.219138,-0.210286,9.803592
15.69,-0.000380,-0.047068,9.501925
15.70,-0.259818,-0.221437,9.764139
15.71,-0.204005,-0.161005,9.775429
15.72,-0.029701,-0.064160,9.725824
15.73,-0.170483,-0.125855,9.642995
15.74,-0.207392,-0.104112,9.672587
15.75,0.011910,-0.066150,9.634366
15.76,0.016032,-0.167780,9.564197
15.77,-0.011724,-0.004673,9.916337
15.78,0.002911,-0.149427,9.849226
15.79,-0.127168,-0.126239,9.686426
15.80,-0.124255,-0.072696,9.776245
15.81,-0.177680,-0.090091,9.782134
15.82,-0.079869,-0.041054,10.056225
15.83,-0.163312,-0.081108,9.851037
15.84,-0.151780,-0.063391,9.846412
15.85,-0.027553,-0.158998,9.735538
15.86,0.042993,-0.248233,9.670088
15.87,-0.050852,-0.291072,9.925184
15.88,0.117301,-0.319763,9.823630
15.89,-0.181936,0.092978,9.616893
15.90,-0.316972,-0.383105,9.797297
15.91,-0.009685,0.026900,9.851726
15.92,-0.186972,-0.213382,9.441822
15.93,-0.125994,0.029207,9.606860
15.94,-0.304214,-0.375522,9.787547
15.95,-0.198322,-0.137245,9.468110
15.96,-0.269154,0.067862,9.491060
15.97,-0.139367,-0.018399,9.701247
15.98,-0.132857,-0.141601,9.808730
15.99,-0.072873,-0.331218,9.816015
16.00,0.067041,-0.253485,9.963081
16.01,0.001543,0.075386,9.753891
16.02,-0.272211,-0.129435,9.691040
16.03,-0.002362,-0.092415,9.561027
16.04,-0.059595,-0.045745,9.691064
16.05,-0.082340,-0.231915,9.844829
16.06,-0.070836,-0.022347,9.852027
16.07,-0.040995,-0.117072,9.784571
16.08,-0.145919,-0.026830,9.825008
16.09,-0.082051,-0.126667,9.928000
16.10,0.084699,-0.241180,9.760748
16.11,-0.138978,-0.098686,9.942544
16.12,-0.175167,0.034597,9.650307
16.13,-0.055995,0.010184,9.742702
16.14,-0.181209,-0.028120,9.686579
16.15,-0.249172,0.081283,9.865814
16.16,-0.080620,-0.045530,9.613754
16.17,0.137751,-0.008907,9.711689
16.18,-0.037472,-0.067761,9.497342
16.19,-0.008127,0.110098,9.841876
16.20,-0.281856,0.035791,9.934188
16.21,0.029687,-0.060527,9.888117
16.22,-0.008307,-0.166887,9.875372
16.23,-0.095901,0.149855,9.880113
16.24,0.008915,-0.066602,9.861553
16.25,0.011158,0.036713,9.850616
16.26,-0.132949,0.315697,9.860659
16.27,0.037464,0.134816,9.674832
16.28,0.144754,0.237141,9.739623
16.29,-0.022801,-0.015695,9.778511
16.30,-0.096111,0.182371,9.722711
16.31,-0.009870,0.061914,9.551464
16.32,0.117419,0.107373,9.598888
16.33,-0.128885,0.310555,9.805034
16.34,0.091086,0.039077,9.900698
16.35,-0.056343,0.079132,9.776254
16.36,0.057397,-0.027418,10.163083
16.37,-0.036074,0.191560,9.648307
16.38,-0.033138,0.021466,9.840436
16.39,0.220893,0.215077,9.959986
16.40,-0.127798,-0.102221,9.929491
16.41,0.102659,0.164821,9.873087
16.42,0.255243,0.024751,9.932299
16.43,0.132760,0.192455,9.791309
16.44,-0.106281,0.105753,10.017452
16.45,-0.097446,0.045517,9.965393
16.46,-0.031018,0.065551,9.667555
16.47,0.080907,0.011901,9.833031
16.48,0.091822,0.216371,9.572599
16.49,-0.085125,-0.008138,10.003616
16.50,-0.034358,0.087641,9.823594
16.51,-0.023776,0.163499,9.983251
16.52,0.055866,0.318862,9.782473
16.53,0.321090,0.128699,9.543376
16.54,-0.021113,0.107561,10.181688
16.55,-0.014024,0.179828,9.846301
16.56,-0.013324,-0.086423,9.713491
16.57,0.229210,0.041008,10.054829
16.58,0.193936,0.171634,10.242411
16.59,0.158598,0.174877,10.021979
16.60,0.317006,0.126536,10.167512
16.61,0.392148,0.496379,10.391038
16.62,0.684266,0.517407,10.427693
16.63,1.166674,0.613950,10.760032
16.64,1.134665,0.641229,11.419360
16.65,1.297975,0.874343,11.487892
16.66,1.469475,1.074094,11.725205
16.67,1.607092,1.127785,12.085848
16.68,2.032704,1.350881,12.546429
16.69,2.140900,1.321268,12.280569
16.70,2.043481,1.520115,12.649420
16.71,2.205725,1.702128,12.904166
16.72,1.948688,1.729619,12.685103
16.73,1.863511,1.716285,12.236162
16.74,1.587797,1.526595,12.035804
16.75,1.291598,1.396496,11.700652
16.76,0.958429,1.211633,11.165823
16.77,0.832268,0.902745,11.002002
16.78,0.755712,0.803242,10.851689
16.79,0.432776,0.789219,10.201093
16.80,0.420640,0.648500,10.284692
16.81,0.144246,0.696120,10.125727
16.82,0.301223,0.566245,9.998875
16.83,0.199895,0.226161,9.925749
16.84,-0.011535,0.324967,9.917467
16.85,0.087050,0.104551,9.905872
16.86,0.214007,0.193397,10.005031
16.87,-0.056164,0.170034,9.908155
16.88,-0.038350,0.193807,9.813286
16.89,0.078471,-0.035619,9.719451
16.90,0.340166,0.129289,9.770882
16.91,0.001131,-0.229337,9.874151
16.92,0.139054,0.141335,9.739587
16.93,0.108620,-0.025127,9.971839
16.94,0.004397,-0.029383,9.900663
16.95,0.092142,-0.279521,10.001613
16.96,0.016661,-0.087277,9.753167
16.97,0.024997,0.116778,9.727360
16.98,-0.133923,-0.101990,10.003924
16.99,0.060012,0.030310,9.864366
17.00,0.168480,-0.055150,9.819399
17.01,0.065471,0.065013,9.947723
17.02,0.188175,-0.041548,9.945804
17.03,0.127128,-0.176565,9.682787
17.04,0.053122,-0.055505,10.061563
17.05,-0.007872,0.136236,9.825657
17.06,0.023484,0.015675,10.146590
17.07,-0.069372,-0.038663,9.762686
17.08,0.116010,0.275175,10.056676
17.09,0.227905,0.185135,10.079063
17.10,0.505777,0.200479,9.959476
17.11,0.485130,0.214056,10.504331
17.12,0.474874,0.355549,10.368207
17.13,0.597101,0.469937,10.870074
17.14,0.964519,0.243931,11.378517
17.15,1.322853,0.694100,11.486063
17.16,1.434768,0.775945,11.769639
17.17,1.741076,0.883926,12.314707
17.18,1.826542,1.060307,12.414643
17.19,2.045026,1.018669,12.553640
17.20,1.803464,1.083234,12.845226
17.21,2.144586,1.509211,12.448792
17.22,1.700983,1.435503,12.388956
17.23,1.750613,1.069770,12.329547
17.24,1.401054,1.230023,11.731138
17.25,1.177197,1.310142,11.818125
17.26,0.919249,1.048967,11.204728
17.27,0.752644,1.091816,11.046367
17.28,0.579034,0.919438,10.774581
17.29,0.487602,0.481842,10.407597
17.30,0.401213,0.486328,10.187536
17.31,0.176083,0.322019,10.119473
17.32,0.273215,0.098317,10.134301
17.33,0.031492,-0.001694,9.835413
17.34,0.118208,0.002334,9.766101
17.35,0.019951,-0.034548,10.118710
17.36,-0.110548,0.034563,9.794475
17.37,-0.031485,0.096471,9.939638
17.38,0.001294,0.013222,9.858191
17.39,-0.067224,0.029545,9.862931
17.40,-0.017202,-0.099072,10.084945
17.41,0.034212,0.002615,9.873000
17.42,-0.075035,-0.087522,9.835479
17.43,-0.427913,-0.120856,9.848311
17.44,0.124463,0.162802,9.816274
17.45,-0.114814,-0.340701,9.793648
17.46,-0.179967,-0.281528,9.818242
17.47,-0.218038,-0.006160,10.121712
17.48,-0.125389,-0.079004,9.989160
17.49,-0.154314,-0.214604,9.841904
17.50,-0.176890,-0.163557,10.028334
17.51,-0.171863,-0.142675,9.669354
17.52,-0.027891,0.080666,10.084805
17.53,0.150841,0.124467,10.074171
17.54,0.004435,0.181163,10.206564
17.55,0.039558,-0.200795,10.035712
17.56,-0.141448,-0.168675,9.955914
17.57,-0.084490,-0.171393,10.076056
17.58,-0.046647,0.161046,9.808268
17.59,-0.177630,0.061938,9.841097
17.60,-0.150112,0.026958,9.888024
17.61,0.003100,0.050315,10.089213
17.62,0.031085,0.021325,9.778288
17.63,-0.091845,-0.101080,9.763951
17.64,-0.243419,0.100287,9.932273
17.65,-0.135417,0.021537,10.000118
17.66,-0.272732,-0.095090,9.801728
17.67,-0.090455,0.122835,9.994501
17.68,-0.068420,0.007685,10.092690
17.69,-0.131023,0.090813,10.069639
17.70,-0.068885,0.053120,9.951484
17.71,-0.047098,0.179542,9.889776
17.72,-0.065422,0.103305,10.145873
17.73,-0.239434,-0.025008,9.905456
17.74,-0.124531,0.123665,10.035352
17.75,-0.043732,0.131414,10.178258
17.76,0.097877,0.153885,10.021430
17.77,-0.122727,0.220372,9.765309
17.78,-0.022371,0.025610,9.731895
17.79,0.018732,0.183147,9.864269
17.80,-0.108107,-0.100355,10.006121
17.81,0.055950,0.096269,9.970487
17.82,0.065966,0.082568,10.219758
17.83,0.092519,0.295549,9.976320
17.84,-0.010189,0.111620,9.877934
17.85,0.230526,0.215408,9.779747
17.86,-0.106727,-0.051816,10.128380
17.87,0.252830,0.141593,10.002290
17.88,0.136815,0.115829,9.854353
17.89,0.273624,0.559964,10.160349
17.90,0.169863,0.242838,10.147992
17.91,0.437468,0.408198,10.403175
17.92,0.670453,0.509112,10.688198
17.93,0.566157,0.415779,10.833140
17.94,0.902864,0.672474,11.203786
17.95,0.908071,0.926147,11.503397
17.96,1.385917,1.037048,11.842213
17.97,1.530751,0.899536,12.107166
17.98,1.781395,1.247084,12.426774
17.99,2.275738,1.558425,12.529024
18.00,2.173891,1.599635,12.791924
18.01,1.758708,1.733281,12.682536
18.02,1.887290,1.486999,12.661905
18.03,1.744136,1.735547,12.512853
18.04,1.392856,1.513168,12.038027
18.05,1.218968,1.611193,11.671226
18.06,0.994555,1.294505,11.376552
18.07,0.580398,0.903703,11.026180
18.08,0.427132,1.097371,10.695494
18.09,0.414743,0.788003,10.459935
18.10,0.284324,0.649127,10.145779
18.11,0.097995,0.385935,10.276240
18.12,0.025571,0.637588,10.062531
18.13,0.069385,0.281192,10.207911
18.14,0.161506,0.451613,10.093218
18.15,0.031930,0.146470,9.852902
18.16,0.228952,0.037077,10.100573
18.17,-0.051694,0.269005,9.559308
18.18,0.055192,0.073652,10.183537
18.19,-0.008811,0.053834,9.723513
18.20,0.106719,-0.108071,9.978924
18.21,-0.054794,-0.021256,9.968730
18.22,0.273277,0.075515,10.065771
18.23,-0.157846,-0.139805,9.862114
18.24,0.253913,-0.055553,9.607487
18.25,0.061843,-0.047655,9.861782
18.26,0.120272,0.004804,9.876660
18.27,0.216998,0.168635,9.620188
18.28,0.162582,-0.050513,9.913148
18.29,-0.025203,-0.102889,9.755886
18.30,0.137073,0.304100,9.997075
18.31,0.291744,-0.082812,9.871437
18.32,-0.036323,-0.059001,10.180114
18.33,0.326783,-0.084275,9.869356
18.34,0.121190,-0.079669,9.965125
18.35,0.025163,-0.042151,9.874676
18.36,-0.027893,0.054097,9.676873
18.37,0.054565,-0.012717,9.875083
18.38,-0.151314,0.063387,10.008821
18.39,0.035351,0.054889,9.987210
18.40,0.055389,-0.049750,9.861450
18.41,-0.040335,-0.033843,9.698126
18.42,0.179886,0.049989,9.991849
18.43,0.065334,-0.220288,9.959894
18.44,0.016624,0.209141,10.018773
18.45,0.055100,-0.155664,9.861838
18.46,0.137862,-0.139582,9.663907
18.47,0.105031,-0.246002,9.973941
18.48,0.013008,-0.245327,9.897418
18.49,0.112968,0.010737,10.093006
18.50,0.092456,0.163821,9.901653
18.51,-0.037668,-0.178897,9.890715
18.52,0.064858,-0.071143,9.954934
18.53,0.169292,-0.088157,9.812376
18.54,0.168602,0.003937,9.805043
18.55,0.072404,0.148883,9.881062
18.56,0.181148,0.064130,9.765306
18.57,-0.017844,-0.147800,9.861473
18.58,-0.014432,-0.056233,10.164458
18.59,0.068874,-0.044591,10.038251
18.60,0.278192,-0.122389,9.934759
18.61,0.117416,-0.251258,10.108210
18.62,0.064007,-0.215114,9.774821
18.63,0.281457,0.019252,10.238289
18.64,0.060722,0.032615,9.824468
18.65,0.362203,-0.141218,10.168772
18.66,0.031450,-0.083507,10.167446
18.67,-0.029946,0.030556,9.641358
18.68,0.070047,-0.315673,10.091474
18.69,0.058561,-0.162533,9.845595
18.70,-0.010140,0.135593,9.805079
18.71,0.397255,-0.067992,9.957285
18.72,0.121383,-0.236554,9.741961
18.73,0.136889,-0.083900,9.952571
18.74,0.023688,0.027879,9.749795
18.75,0.007632,-0.396798,9.905502
18.76,0.197767,-0.066389,10.066857
18.77,-0.128743,-0.128378,9.933206
18.78,-0.067213,-0.276696,9.827900
18.79,0.037742,-0.065626,9.953238
18.80,0.226953,-0.087478,9.679694
18.81,0.017215,-0.069484,9.758313
18.82,0.109352,-0.103737,9.814659
18.83,0.059927,-0.179729,9.984191
18.84,0.209268,-0.226847,9.929971
18.85,-0.139396,-0.130146,9.947202
18.86,0.136079,0.060955,9.867556
18.87,0.020832,-0.008991,9.760159
18.88,0.152569,-0.039987,10.077925
18.89,-0.059898,-0.151118,9.770986
18.90,0.038130,-0.065820,9.926423
18.91,0.019647,0.072948,9.851136
18.92,-0.091638,0.050536,9.944715
18.93,-0.128322,-0.061809,9.780187
18.94,-0.047680,-0.312410,10.011381
18.95,0.034178,-0.074523,10.056010
18.96,-0.075649,-0.045977,10.000874
18.97,-0.027853,-0.091444,9.883188
18.98,-0.217978,-0.026747,9.799227
18.99,-0.039608,0.126198,10.254259
19.00,0.124246,0.029054,9.719348
19.01,0.082582,0.157541,9.980553
19.02,-0.015923,-0.137061,9.902771
19.03,0.020299,0.012410,9.846420
19.04,-0.111767,-0.178694,9.880086
19.05,0.179136,0.007656,9.781715
19.06,0.228933,-0.061900,9.911910
19.07,-0.002799,0.221928,9.895450
19.08,0.284952,0.121800,10.224932
19.09,-0.110874,0.198717,9.998937
19.10,-0.182668,0.029557,9.920201
19.11,-0.120941,-0.037316,9.927508
19.12,-0.065330,-0.037345,10.103411
19.13,0.235299,0.124300,9.708958
19.14,-0.078996,0.313078,9.818173
19.15,-0.151470,0.148553,9.575689
19.16,-0.159122,0.057096,9.919846
19.17,0.082560,0.082202,9.959287
19.18,0.062564,0.103664,9.700080
19.19,-0.118172,0.352956,10.039293
19.20,-0.287739,0.259901,9.736652
19.21,-0.200732,0.144936,9.788260
19.22,0.138671,0.128543,9.851852
19.23,0.012282,0.152689,10.057204
19.24,-0.064932,0.177226,9.712769
19.25,0.149147,0.069227,9.872589
19.26,0.157650,0.018169,9.939187
19.27,-0.083806,0.243721,9.909187
19.28,-0.083650,0.122637,9.913247
19.29,-0.153339,0.233739,9.933989
19.30,-0.119497,0.317070,9.748603
19.31,-0.265454,0.181394,10.061436
19.32,-0.267587,0.161084,9.808467
19.33,-0.296999,0.500977,9.788769
19.34,0.038408,0.140435,10.010453
19.35,-0.280403,-0.016872,9.732382
19.36,0.139750,0.078407,9.864375
19.37,-0.182990,0.296282,9.717213
19.38,0.112152,-0.047527,10.169975
19.39,-0.141006,0.014945,10.139365
19.40,-0.285896,0.235257,9.799591
19.41,0.055463,0.066921,9.886675
19.42,0.069114,0.083107,9.813492
19.43,-0.208237,0.221759,9.762830
19.44,-0.139591,0.003358,9.827251
19.45,-0.208651,-0.090621,9.803687
19.46,-0.114462,-0.085000,9.595347
19.47,-0.086983,0.147362,9.843933
19.48,-0.141894,0.104364,9.800059
19.49,-0.317680,-0.014274,9.848558
19.50,-0.168686,-0.074801,9.792868
19.51,-0.014007,0.027071,9.752145
19.52,-0.122828,0.188682,9.923953
19.53,-0.136268,-0.050553,9.874978
19.54,-0.207767,-0.034836,9.994661
19.55,-0.168264,-0.103330,9.867352
19.56,0.075146,-0.009794,9.769303
19.57,-0.229460,0.069557,9.882195
19.58,-0.004835,0.277438,9.517443
19.59,-0.084226,0.044332,10.088127
19.60,-0.058927,0.006299,9.830911
19.61,-0.174513,0.110808,10.097209
19.62,-0.127065,0.085302,9.668567
19.63,-0.083660,-0.073066,9.632698
19.64,-0.143475,0.267005,9.839280
19.65,-0.039149,-0.017645,9.837716
19.66,-0.021859,0.008201,9.833216
19.67,0.186234,0.040595,9.810782
19.68,-0.038758,0.010589,9.695737
19.69,-0.299175,0.146848,9.574634
19.70,0.072376,-0.112196,9.821139
19.71,-0.089052,0.047478,9.600853
19.72,0.179520,-0.031802,9.586557
19.73,0.117350,0.061462,9.724974
19.74,-0.116972,-0.087059,9.837485
19.75,0.033176,-0.107977,10.054413
19.76,-0.121774,0.017394,9.912161
19.77,-0.047165,-0.031876,9.974657
19.78,0.036700,-0.177493,9.864467
19.79,0.092263,0.078360,9.823265
19.80,0.069299,0.000906,10.121673
19.81,-0.025910,-0.099598,9.584625
19.82,0.266361,-0.150389,9.710939
19.83,-0.072156,-0.053815,9.720838
19.84,-0.217887,-0.021356,9.891839
19.85,-0.191427,-0.294796,9.628695
19.86,0.158604,-0.061101,9.871593
19.87,-0.024068,-0.030327,9.844858
19.88,0.007643,-0.393151,9.876577
19.89,-0.073108,-0.089304,9.873046
19.90,-0.058880,-0.031246,9.976092
19.91,-0.095553,-0.046406,9.752857
19.92,0.058892,-0.021085,9.832994
19.93,-0.005879,-0.157707,9.654687
19.94,0.061453,-0.243959,9.621771
19.95,0.053420,-0.335660,10.002964
19.96,-0.034999,0.011107,9.641244
19.97,-0.155541,-0.035608,9.843783
19.98,-0.162612,0.020478,9.827412
19.99,0.389432,-0.206270,9.916638
20.00,0.206933,-0.022054,9.519073
20.01,0.193657,-0.297848,9.875079
20.02,-0.044874,-0.220631,9.741282
20.03,0.040421,-0.099695,9.664524
20.04,-0.055410,-0.033506,9.712509
20.05,-0.111913,0.090350,9.891891
20.06,-0.022067,-0.137747,9.848245
20.07,0.210719,-0.210407,9.727098
20.08,0.155395,-0.213929,9.584677
20.09,-0.059036,-0.183548,9.593709
20.10,0.022388,0.168593,9.847891
20.11,0.152784,-0.003822,9.562753
20.12,-0.002978,0.042339,9.724274
20.13,0.077659,-0.116170,10.115354
20.14,0.118820,-0.083832,9.803539
20.15,0.119914,0.004312,9.842321
20.16,0.105818,-0.136095,9.589076
20.17,-0.000895,-0.105996,9.565023
20.18,0.013566,-0.147495,9.847494
20.19,-0.054315,-0.115580,9.695793
20.20,-0.103695,-0.051224,9.898882
20.21,0.071738,-0.150808,9.753876
20.22,0.185200,-0.012876,10.231000
20.23,-0.076749,-0.007935,9.666266
20.24,0.123172,-0.058398,9.786161
20.25,0.185993,-0.130909,9.619804
20.26,-0.127259,-0.013677,9.888788
20.27,0.061881,-0.081465,9.805290
20.28,0.292984,-0.009845,9.608384
20.29,0.162647,0.121812,9.697874
20.30,-0.127182,-0.154822,9.933704
20.31,0.177017,0.261854,9.916250
20.32,0.008914,-0.002163,9.542370
20.33,0.182109,0.061455,9.674535
20.34,0.016734,-0.072819,9.994165
20.35,0.093456,0.160034,9.715178
20.36,0.035479,0.013335,9.763697
20.37,0.100427,-0.013437,9.881260
20.38,0.031962,-0.029710,9.550530
20.39,0.073175,0.012761,9.605165
20.40,-0.041023,0.101094,9.691392
20.41,0.159278,0.078074,9.905941
20.42,0.122475,0.059927,9.881791
20.43,-0.090113,-0.011761,9.843641
20.44,0.228000,-0.007397,9.730983
20.45,0.097049,0.044484,9.922497
20.46,0.154053,0.175077,9.766967
20.47,0.253662,0.226511,9.908573
20.48,0.244227,0.279341,10.016742
20.49,0.408873,0.232168,10.217980
20.50,0.325210,0.341526,10.102076
20.51,0.608085,0.355095,10.233963
20.52,0.657298,0.264062,10.690029
20.53,0.896224,0.563175,10.972758
20.54,1.104737,0.676520,11.016287
20.55,1.442760,0.742271,11.272672
20.56,1.617595,0.951498,11.932622
20.57,1.693937,1.188078,11.837317
20.58,1.843562,1.178882,12.075810
20.59,2.026350,1.353847,12.434758
20.60,1.978268,1.721471,12.527803
20.61,1.901088,1.404912,12.309336
20.62,1.655214,1.596839,12.328683
20.63,1.546293,1.458819,12.088695
20.64,1.749454,1.448601,11.678344
20.65,1.190361,1.420016,11.695113
20.66,1.255106,1.202485,11.134988
20.67,0.849229,1.248369,10.920561
20.68,0.597315,1.190844,10.286135
20.69,0.259862,0.978549,10.060350
20.70,0.312241,0.856553,10.154482
20.71,0.442740,0.436982,10.219632
20.72,0.333800,0.458829,9.726607
20.73,0.132355,0.447624,9.826088
20.74,-0.070106,0.417595,9.593198
20.75,-0.067923,0.461594,9.640942
20.76,-0.069003,0.332081,9.754112
20.77,0.177524,0.275931,9.649939
20.78,0.213433,0.458353,9.531703
20.79,0.036102,0.134943,9.526261
20.80,-0.028007,0.074884,9.446969
20.81,0.190383,0.120580,9.777170
20.82,-0.116516,-0.018443,9.793848
20.83,0.003603,0.093021,9.793031
20.84,0.049458,-0.127897,9.582750
20.85,-0.113086,0.010693,9.850872
20.86,-0.089286,0.055561,9.809026
20.87,-0.102013,0.178656,9.711180
20.88,0.150318,0.193434,9.688359
20.89,0.206830,-0.059974,9.619743
20.90,-0.012091,0.300635,9.738126
20.91,-0.060575,0.065715,9.938839
20.92,-0.102045,0.074071,9.874075
20.93,-0.029985,-0.149930,9.683376
20.94,-0.093643,-0.028828,9.802867
20.95,-0.032144,0.176617,9.587774
20.96,0.043454,0.081345,9.868789
20.97,-0.029403,0.091509,9.690205
20.98,0.037673,0.133034,9.965186
20.99,0.100820,-0.028052,10.376216
21.00,0.174936,0.187588,10.010908
21.01,0.282407,0.439088,10.675298
21.02,0.584405,0.489640,10.559414
21.03,0.472359,0.451717,10.658387
21.04,1.094080,0.778669,10.964262
21.05,1.158505,0.577423,11.742367
21.06,1.452283,0.756921,11.815504
21.07,1.682023,1.242129,11.973056
21.08,1.683519,1.223866,12.270107
21.09,1.770802,1.237460,12.519049
21.10,1.794224,1.355770,12.513293
21.11,1.846912,1.321190,12.507838
21.12,1.844467,1.467201,12.548241
21.13,1.513087,1.432481,11.896417
21.14,1.436222,1.346431,11.839420
21.15,0.838362,1.105460,11.404425
21.16,0.835276,1.149709,11.009787
21.17,0.797416,0.909384,10.918137
21.18,0.441104,0.700736,10.291493
21.19,0.200768,0.817265,9.940842
21.20,0.095353,0.779481,10.128849
21.21,-0.282865,0.619437,9.948573
21.22,-0.107225,0.348498,9.687189
21.23,0.096270,0.141318,9.575751
21.24,-0.129422,0.085894,10.046235
21.25,-0.133098,0.081238,9.816827
21.26,-0.367696,-0.064710,9.740902
21.27,-0.289495,0.109541,10.037932
21.28,0.045880,-0.317569,9.869874
21.29,-0.024357,-0.125787,9.972791
21.30,-0.254701,-0.005619,9.559353
21.31,-0.174717,-0.210630,9.554161
21.32,-0.102265,-0.142715,9.811334
21.33,-0.241801,-0.045443,9.783467
21.34,-0.338104,0.064023,9.900954
21.35,-0.115917,-0.274041,9.498292
21.36,-0.027182,-0.282910,9.825729
21.37,-0.023837,-0.231771,9.866360
21.38,0.011318,-0.301890,9.859576
21.39,-0.278876,-0.292178,9.672235
21.40,-0.084128,-0.231481,9.802449
21.41,-0.121810,0.034966,9.621933
21.42,-0.098474,-0.148547,9.690204
21.43,-0.111728,-0.105140,9.585907
21.44,-0.163772,-0.221137,9.626416
21.45,-0.444756,-0.027809,9.699616
21.46,0.058794,0.124126,9.665351
21.47,-0.038934,-0.204402,9.628592
21.48,-0.254462,0.112369,9.553630
21.49,-0.017294,-0.047385,10.010887
21.50,-0.125381,-0.085415,9.667024
21.51,-0.119530,-0.035562,9.784077
21.52,-0.158929,-0.032675,9.492414
21.53,0.000326,0.147525,9.929539
21.54,-0.157393,-0.008524,9.763680
21.55,-0.190266,-0.001474,9.678957
21.56,0.080009,-0.112271,9.681021
21.57,-0.074335,0.043908,9.864534
21.58,-0.067530,-0.166453,9.330328
21.59,0.036457,-0.033077,9.629463
21.60,-0.123294,0.305785,9.729562
21.61,-0.095438,-0.334038,9.729924
21.62,0.002210,0.002236,10.102074
21.63,-0.213107,0.016363,9.709303
21.64,0.007431,-0.031509,9.904173
21.65,-0.096218,-0.012809,10.034444
21.66,0.117924,0.043929,9.900054
21.67,0.112645,0.031271,9.752526
21.68,0.144356,0.126339,9.729797
21.69,-0.029240,0.091548,10.106716
21.70,0.247444,0.457786,10.363555
21.71,0.247147,0.266722,10.385807
21.72,0.547723,0.465364,10.707392
21.73,0.472315,0.435053,11.170906
21.74,0.791587,0.762320,11.238264
21.75,1.362179,0.886440,11.303293
21.76,1.506462,1.004191,11.800438
21.77,1.641392,0.985847,12.291642
21.78,1.753910,1.164941,12.311942
21.79,1.850410,1.585063,12.718396
21.80,2.047514,1.391029,12.554671
21.81,1.946001,1.624521,12.556414
21.82,2.061982,1.459394,12.301685
21.83,1.681797,1.677370,12.128173
21.84,1.496009,1.417762,11.831065
21.85,1.086298,1.293319,11.242225
21.86,0.973222,1.204568,11.071253
21.87,0.817957,1.086060,10.649432
21.88,0.560474,1.054306,10.493764
21.89,0.389636,0.866982,10.216098
21.90,0.364931,0.587397,10.294953
21.91,0.417506,0.588552,10.167674
21.92,0.190332,0.344295,10.012100
21.93,0.268774,0.466453,9.695411
21.94,0.180286,0.414154,9.820437
21.95,0.220908,0.254367,9.622195
21.96,0.009827,0.246608,9.776888
21.97,0.054777,0.392962,9.881147
21.98,0.054467,0.141876,9.926136
21.99,0.144960,0.032615,9.852284
22.00,0.175822,0.205639,9.962256
22.01,0.097386,-0.006089,9.823008
22.02,0.189338,0.100530,9.754805
22.03,0.018283,0.051287,9.910815
22.04,0.193819,0.037105,9.916471
22.05,0.211075,0.089856,9.717271
22.06,0.171984,0.226521,9.844817
22.07,0.108185,0.249849,9.751666
22.08,0.178975,0.226822,9.512781
22.09,-0.012724,0.154369,9.856717
22.10,0.119428,0.081203,9.614988
22.11,0.132640,-0.172907,9.843293
22.12,-0.062125,0.151832,9.583522
22.13,0.155089,-0.168350,9.698835
22.14,-0.051114,-0.128396,9.740010
22.15,0.047881,0.080032,9.970082
22.16,0.104371,0.127996,9.728277
22.17,0.012160,0.038729,9.653601
22.18,0.109886,0.273540,9.856235
22.19,0.107977,0.140958,9.775980
22.20,0.001460,0.051627,9.918165
22.21,0.167811,0.243791,9.666955
22.22,0.007608,0.260962,9.839268
22.23,0.373399,0.130217,10.156619
22.24,0.085121,-0.028904,9.778511
22.25,-0.042998,-0.006624,9.839283
22.26,-0.021380,-0.119043,9.581726
22.27,0.233518,0.044518,9.695984
22.28,0.045663,-0.081459,9.880891
22.29,-0.070051,-0.000099,9.771472
22.30,0.194774,0.065423,9.904806
22.31,0.041077,-0.209204,9.879403
22.32,0.167866,-0.128179,9.636512
22.33,0.200126,-0.042773,9.964302
22.34,0.119091,0.006287,9.649305
22.35,0.371859,-0.052161,9.717312
22.36,-0.124526,-0.030857,9.857647
22.37,-0.017715,-0.088640,10.046019
22.38,0.047624,-0.183321,9.687207
22.39,0.347485,-0.079038,9.849537
22.40,0.289619,-0.045893,9.851814
22.41,0.226128,-0.062961,9.923108
22.42,-0.026268,-0.017646,9.997946
22.43,-0.014816,0.013924,9.776713
22.44,-0.035562,0.040259,9.976041
22.45,-0.032843,-0.122693,10.021722
22.46,0.237523,-0.240782,10.086323
22.47,0.026307,0.095994,9.907927
22.48,0.039273,-0.015136,9.860784
22.49,0.142611,-0.180613,9.773382
22.50,-0.152967,-0.037253,9.636644
22.51,0.049890,0.053207,9.803062
22.52,-0.091188,0.128330,9.858772
22.53,0.001922,-0.053149,9.828781
22.54,-0.036347,0.040062,9.928852
22.55,-0.045803,-0.235944,9.642643
22.56,0.054518,-0.098603,9.821803
22.57,0.050655,-0.137800,10.127594
22.58,-0.005636,-0.059588,9.988752
22.59,0.061832,0.089760,9.936672
22.60,-0.090297,-0.076266,9.906133
22.61,0.092297,-0.221221,9.801304
22.62,-0.017679,-0.262527,9.607916
22.63,-0.054425,0.084595,9.918499
22.64,-0.095212,-0.052989,9.512731
22.65,-0.032264,-0.062379,9.810937
22.66,0.217730,-0.158657,9.857001
22.67,-0.017788,-0.086280,9.795899
22.68,-0.150950,-0.237623,10.163485
22.69,0.093222,-0.073238,10.115879
22.70,-0.077062,-0.260948,10.006038
22.71,0.010251,-0.163088,9.732865
22.72,-0.099821,-0.196878,10.132368
22.73,0.123242,-0.510120,9.950979
22.74,-0.104615,-0.160103,9.733392
22.75,0.130787,-0.225360,9.870789
22.76,-0.166056,-0.141501,10.001341
22.77,-0.078434,-0.114561,9.784222
22.78,0.121625,0.099112,9.888656
22.79,-0.029227,-0.074510,9.914198
22.80,0.220194,-0.068782,9.716673
22.81,-0.087591,-0.046974,9.833874
22.82,-0.027294,0.000821,9.729009
22.83,0.167702,-0.046412,9.995065
22.84,-0.245290,-0.064037,9.747194
22.85,-0.262777,-0.009205,9.916036
22.86,-0.164257,-0.382263,9.681415
22.87,0.026342,0.163298,9.718201
22.88,-0.266826,0.107242,9.712255
22.89,-0.004291,-0.053431,9.838006
22.90,-0.014935,-0.244842,9.904619
22.91,0.161478,0.074324,9.931241
22.92,0.043195,-0.149670,9.632864
22.93,-0.040492,0.002309,9.858159
22.94,0.077103,-0.210918,9.777472
22.95,-0.023037,0.215102,9.958111
22.96,-0.144521,-0.220121,9.846621
22.97,-0.228166,-0.033665,9.873528
22.98,-0.160530,-0.291407,9.781297
22.99,-0.098297,-0.036415,10.127776
23.00,-0.073656,-0.077160,9.707350
23.01,-0.351940,0.115734,9.831805
23.02,-0.123007,-0.066332,9.903537
23.03,-0.094057,0.126822,9.853979
23.04,-0.032494,-0.127214,9.782904
23.05,0.096423,-0.032651,9.636895
23.06,-0.076991,-0.024745,9.794385
23.07,-0.208774,0.071642,9.757537
23.08,-0.318035,0.061837,10.127587
23.09,-0.017544,0.109723,10.210187
23.10,-0.204276,0.060451,9.886642
23.11,0.004155,0.113105,9.697699
23.12,0.068063,-0.068752,9.998293
23.13,-0.284559,0.090810,9.758207
23.14,-0.032327,0.242209,9.819254
23.15,0.056915,-0.147409,9.808668
23.16,0.024796,0.117723,9.827194
23.17,-0.348226,0.144984,9.848151
23.18,-0.198156,0.243706,9.714457
23.19,-0.248282,0.159940,9.800589
23.20,-0.030673,0.089149,10.042176
23.21,-0.042608,0.132854,9.895188
23.22,-0.414562,-0.002995,9.917919
23.23,-0.125414,0.042438,9.588339
23.24,0.008379,-0.067693,10.034010
23.25,-0.068238,0.274438,9.805803
23.26,-0.066629,0.153214,10.059574
23.27,-0.126065,-0.007747,9.924249
23.28,-0.207325,0.137527,9.824382
23.29,-0.080189,0.246642,9.668587
23.30,-0.069689,0.228985,10.208352
23.31,0.000184,0.000633,10.016712
23.32,0.012315,-0.262248,10.025459
23.33,-0.058496,0.162884,10.159624
23.34,0.065138,0.010394,9.936708
23.35,-0.108614,0.192634,10.095007
23.36,-0.234202,0.232874,9.838994
23.37,-0.000897,0.253115,10.009566
23.38,-0.040132,0.329235,9.818390
23.39,0.007246,0.268363,9.836349
23.40,-0.201145,0.329827,9.920743
23.41,0.168518,0.284998,9.729989
23.42,0.041971,0.294835,9.953793
23.43,-0.074708,0.113113,9.864235
23.44,-0.149215,-0.037822,9.629875
23.45,0.095530,0.413404,9.844272
23.46,-0.162668,0.121477,9.860236
23.47,0.244218,0.259519,10.028126
23.48,-0.097389,0.043956,9.948830
23.49,0.186026,0.223344,10.111710
23.50,-0.039177,-0.188264,9.982027
23.51,0.176064,0.053115,9.831792
23.52,-0.098379,0.087580,9.901299
23.53,-0.004491,0.151714,9.860853
23.54,0.093270,0.221454,9.977993
23.55,0.079604,-0.042071,9.918136
23.56,0.135701,0.164649,9.821835
23.57,-0.051436,0.228700,9.911096
23.58,0.020680,0.358885,9.974503
23.59,0.163739,0.157884,9.769072
23.60,-0.067285,0.013508,9.954373
23.61,0.089443,-0.088549,9.688984
23.62,-0.002194,0.278848,10.064775
23.63,0.052149,0.142980,9.983782
23.64,0.040896,0.046902,10.138046
23.65,-0.060575,-0.149902,9.753580
23.66,0.005965,-0.072423,10.068530
23.67,0.057824,0.109838,10.040788
23.68,0.031241,0.071228,9.884184
23.69,0.235380,-0.210164,9.856872
23.70,0.170875,0.093888,9.757575
23.71,0.087447,-0.175697,9.720962
23.72,-0.036022,0.169511,9.804070
23.73,-0.040488,0.026557,9.733289
23.74,0.298022,-0.059584,10.132341
23.75,-0.057325,0.109350,9.698482
23.76,0.080145,0.027477,9.929431
23.77,0.112337,0.138605,9.969388
23.78,0.034124,-0.016130,9.958231
23.79,-0.046409,-0.014476,9.970301
23.80,-0.018047,-0.070645,10.040223
23.81,0.012755,-0.010063,9.845052
23.82,-0.004703,0.157018,9.919479
23.83,0.241767,-0.112086,9.865853
23.84,0.083252,0.021090,10.089022
23.85,0.023297,-0.167108,10.200354
23.86,0.100691,-0.314124,9.738914
23.87,0.169608,-0.045743,9.621390
23.88,0.049590,-0.030563,9.985090
23.89,0.200565,-0.092433,10.054919
23.90,-0.058939,-0.262794,10.178687
23.91,0.235316,-0.050632,10.007646
23.92,0.094733,-0.058878,10.099369
23.93,0.090979,-0.200982,10.135976
23.94,0.014398,-0.260033,10.108234
23.95,-0.049077,-0.130964,10.026117
23.96,-0.101140,-0.025145,9.722834
23.97,0.007824,-0.056034,9.900776
23.98,0.170299,-0.213927,9.943603
23.99,-0.015177,-0.093546,9.887399
24.00,-0.085153,-0.004663,9.896087
24.01,-0.007645,-0.252105,10.121456
24.02,0.056737,-0.102790,9.797835
24.03,0.064317,0.053299,10.019502
24.04,0.095716,-0.254764,9.959499
24.05,0.244875,0.046561,9.808982
24.06,0.287732,0.117444,9.802218
24.07,0.406168,-0.080725,9.753981
24.08,0.013860,-0.062540,10.121424
24.09,0.170763,0.147698,10.135814
24.10,0.449047,0.061440,10.158429
24.11,0.434691,-0.121448,10.185962
24.12,0.751454,0.244692,10.732974
24.13,0.866159,0.427192,10.919818
24.14,1.252182,0.590733,11.155627
24.15,1.425743,0.540813,11.455315
24.16,1.665455,0.766374,11.891159
24.17,1.705126,1.068357,12.295236
24.18,1.916624,1.087493,12.428534
24.19,2.003831,1.036539,12.467485
24.20,1.897239,1.466571,12.680491
24.21,2.212745,1.355818,12.778858
24.22,2.009113,1.536438,12.477575
24.23,1.700182,1.220838,12.234824
24.24,1.677420,1.317084,11.873378
24.25,1.203432,1.301442,11.458744
24.26,0.816309,1.111218,11.117959
24.27,0.932177,0.842789,10.701708
24.28,0.460535,0.552523,10.826601
24.29,0.427340,0.875953,10.500804
24.30,0.347523,0.584746,10.271641
24.31,0.273237,0.570092,10.170716
24.32,0.260177,0.433470,10.084258
24.33,0.180803,0.304042,9.871225
24.34,0.145530,0.122569,9.887921
24.35,-0.036004,0.165551,9.841785
24.36,0.080693,0.239102,10.244558
24.37,-0.144333,0.049815,10.026850
24.38,0.217368,0.250399,9.902312
24.39,-0.143345,-0.168048,10.066932
24.40,-0.020775,-0.185903,10.047265
24.41,-0.141239,0.124293,9.679025
24.42,-0.074181,-0.091191,9.839968
24.43,0.011544,0.255242,9.867878
24.44,-0.056993,0.174533,9.954826
24.45,0.140303,0.209182,9.836920
24.46,0.026762,0.129766,9.853556
24.47,-0.059472,-0.081830,9.801828
24.48,-0.023403,-0.165176,10.012330
24.49,0.135549,0.218559,9.662467
24.50,0.094821,-0.135695,9.803753
24.51,-0.154307,0.239494,9.604510
24.52,-0.102723,0.134622,9.717510
24.53,0.032566,0.049973,9.905094
24.54,0.014661,0.116909,9.906775
24.55,-0.157087,0.124321,9.814889
24.56,0.055600,0.048710,10.015120
24.57,-0.144394,0.248506,10.046375
24.58,0.115865,0.248772,9.846218
24.59,0.019979,0.104908,9.890200
24.60,-0.182090,0.018851,9.791295
24.61,-0.111978,0.252635,9.942505
24.62,-0.115424,-0.140869,9.688792
24.63,-0.030453,0.162472,10.110701
24.64,-0.071175,0.207639,10.025930
24.65,-0.176654,0.032693,9.711814
24.66,-0.191732,0.267256,9.792605
24.67,0.067261,0.172620,10.000769
24.68,0.077367,0.145085,9.955228
24.69,0.118806,0.372875,10.169571
24.70,0.229091,0.188179,10.171905
24.71,0.245183,0.500545,10.609803
24.72,0.499623,0.254115,10.620808
24.73,0.974620,0.640116,11.229813
24.74,1.031834,0.741416,11.286264
24.75,1.093937,0.814609,11.347268
24.76,1.303181,1.076551,12.162138
24.77,1.239282,1.170302,12.328292
24.78,1.884883,1.447174,12.472572
24.79,1.963715,1.509843,12.668613
24.80,1.842294,1.591266,12.465961
24.81,1.694883,1.631214,12.323267
24.82,1.612741,1.558851,12.409098
24.83,1.627972,1.556993,12.360893
24.84,1.344759,1.560772,11.916614
24.85,1.198427,1.412901,11.764453
24.86,0.885562,1.442121,11.373645
24.87,0.767745,1.176281,10.878406
24.88,0.501081,1.057240,10.767760
24.89,0.395574,0.690528,10.589688
24.90,-0.079988,0.826012,10.188999
24.91,-0.070272,0.510001,10.039213
24.92,-0.031425,0.338085,9.995876
24.93,0.097812,0.562348,9.575574
24.94,0.165775,0.368162,9.911596
24.95,-0.096682,0.338021,9.947618
24.96,-0.160132,0.226162,9.851487
24.97,-0.326498,0.123314,9.870295
24.98,0.009349,0.073295,9.810470
24.99,-0.161057,0.179866,9.533597
25.00,0.260137,0.206997,10.043703
25.01,-0.182889,0.051256,9.757787
25.02,0.159493,0.298910,9.721425
25.03,-0.002108,0.018851,9.996796
25.04,-0.213922,-0.131468,9.942524
25.05,-0.061166,-0.176922,9.842588
25.06,0.005165,-0.178708,9.910935
25.07,-0.112702,-0.031503,9.640394
25.08,0.016719,-0.015276,9.789640
25.09,0.016008,0.088927,9.981109
25.10,-0.008315,-0.001950,9.703915
25.11,-0.079726,0.097169,9.657825
25.12,-0.216522,-0.004150,9.807475
25.13,-0.082434,-0.013393,9.809638
25.14,-0.049695,-0.089762,9.884893
25.15,-0.293468,0.144850,9.600175
25.16,-0.045470,-0.214985,9.435090
25.17,-0.074753,-0.000329,9.919864
25.18,-0.216015,-0.063488,9.638165
25.19,-0.097592,0.047005,9.703278
25.20,-0.092194,-0.054321,9.481920
25.21,0.179762,-0.055691,9.929680
25.22,-0.022450,-0.093511,9.834422
25.23,0.078506,0.101025,9.827709
25.24,-0.056857,-0.070382,9.825676
25.25,-0.264435,0.161348,9.493689
25.26,0.044325,-0.046489,9.643121
25.27,-0.112067,-0.080465,9.716765
25.28,-0.070003,-0.104138,9.674210
25.29,-0.152602,-0.022214,9.740189
25.30,-0.013791,-0.163189,9.812125
25.31,0.109466,-0.076915,9.918604
25.32,0.098575,-0.094003,9.571660
25.33,0.183517,-0.054662,9.780950
25.34,0.209738,-0.047655,9.888837
25.35,-0.229411,-0.033428,9.673175
25.36,-0.106225,-0.056735,9.798959
25.37,-0.148105,0.141229,9.930015
25.38,0.192339,0.034612,9.927080
25.39,0.102361,0.339983,10.110677
25.40,0.223096,0.091544,10.158485
25.41,0.384360,0.276028,10.275730
25.42,0.619947,0.167697,10.378590
25.43,0.593736,0.535361,10.848737
25.44,0.847156,0.412187,11.139168
25.45,1.241265,0.694239,11.320564
25.46,1.627495,0.758345,11.874996
25.47,1.702102,0.994995,12.275578
25.48,1.789064,1.054464,12.250653
25.49,1.743619,1.111570,12.400063
25.50,2.158454,1.270131,12.449437
25.51,1.919293,1.549576,12.265010
25.52,1.758765,1.443084,12.619875
25.53,1.517884,1.213631,12.029497
25.54,1.335682,1.441573,11.665688
25.55,1.156619,1.110386,11.292268
25.56,1.006503,1.186589,11.059406
25.57,0.669917,1.025508,10.703450
25.58,0.645310,0.885998,10.728842
25.59,0.435700,0.887425,10.127408
25.60,0.609230,0.426263,9.910775
25.61,0.047588,0.472989,10.072585
25.62,0.208194,0.441762,9.887655
25.63,0.167700,0.122831,9.808747
25.64,-0.003177,0.038348,9.877679
25.65,0.116443,0.038193,9.793176
25.66,0.188987,0.071282,9.752275
25.67,0.104227,-0.164974,9.553129
25.68,0.257357,0.052180,9.511215
25.69,-0.170126,-0.193843,9.643635
25.70,-0.009193,0.124947,9.587975
25.71,0.269869,0.029817,9.776159
25.72,0.203387,0.198775,9.485630
25.73,0.159871,0.052213,9.673973
25.74,0.243991,-0.060744,9.711539
25.75,-0.133083,-0.115454,9.729448
25.76,0.193169,0.014033,9.790105
25.77,0.226098,-0.013038,9.687798
25.78,0.019891,0.138294,9.639340
25.79,0.414887,-0.110039,9.906302
25.80,0.123266,0.249371,9.686567
25.81,-0.163222,0.165307,9.929356
25.82,0.145750,-0.006636,9.684476
25.83,0.013581,0.238945,9.727043
25.84,0.239612,-0.065396,9.709233
25.85,0.165295,0.058563,9.760375
25.86,0.027401,-0.114042,9.668584
25.87,0.278938,0.265883,9.740190
25.88,0.210751,-0.148325,9.940424
25.89,-0.002076,-0.118528,9.872339
25.90,0.078169,-0.016992,9.872704
25.91,0.157470,0.222577,9.536442
25.92,0.050640,0.183069,9.558518
25.93,0.053023,0.087580,9.753653
25.94,0.096246,0.199498,9.830516
25.95,-0.037479,0.067507,9.649389
25.96,-0.179045,0.136007,9.623874
25.97,0.115947,0.287302,9.916152
25.98,-0.153158,0.063093,9.816526
25.99,-0.035497,0.004120,9.868123
26.00,-0.130864,0.155724,9.657714
26.01,-0.118127,0.191099,9.646239
26.02,0.128714,0.118291,9.851422
26.03,0.048646,0.227993,9.681343
26.04,0.041998,0.085760,9.632164
26.05,-0.087307,0.127309,9.589408
26.06,-0.010590,0.158810,9.645257
26.07,0.110716,0.149962,9.838945
26.08,0.056643,0.310446,9.504687
26.09,0.158890,0.162329,9.803727
26.10,0.173185,0.082394,9.616140
26.11,0.024243,0.182851,9.685491
26.12,-0.170689,0.240935,9.694114
26.13,-0.042208,0.212908,9.683352
26.14,0.033818,0.206132,9.673738
26.15,-0.050741,-0.060269,9.651418
26.16,-0.087271,-0.180233,9.633332
26.17,0.044453,0.271022,9.897817
26.18,0.324476,0.169526,9.716285
26.19,-0.029026,0.112901,9.694886
26.20,0.025901,0.197192,9.622022
26.21,-0.134556,0.343297,9.654928
26.22,0.168719,0.279553,9.622055
26.23,0.121080,0.223073,9.818758
26.24,0.109379,-0.001349,9.605911
26.25,0.172432,0.011474,9.396757
26.26,-0.045470,-0.187064,9.719224
26.27,-0.033932,0.172133,9.671788
26.28,0.204088,0.225751,9.628747
26.29,0.071376,0.231946,9.838243
26.30,-0.274307,0.166399,9.327812
26.31,0.043139,0.062901,9.931072
26.32,-0.084669,0.009547,9.857958
26.33,0.089508,-0.026074,9.622294
26.34,0.027324,0.048914,9.647043
26.35,-0.233884,-0.053403,9.780711
26.36,0.003910,0.269927,9.784424
26.37,-0.006370,-0.101920,9.621279
26.38,0.008711,0.025756,9.483656
26.39,0.030942,-0.188010,10.005917
26.40,0.138223,0.074763,9.843865
26.41,0.005252,0.033648,9.731988
26.42,-0.044736,-0.014194,9.734670
26.43,0.087260,-0.088686,9.797092
26.44,0.215681,0.018121,9.813916
26.45,0.053472,-0.052970,9.418147
26.46,-0.034413,-0.009544,9.661201
26.47,-0.010004,0.236271,9.646744
26.48,-0.033859,0.016537,9.687930
26.49,-0.064961,0.054326,9.818564
26.50,0.190118,-0.070828,9.460177
26.51,-0.162025,-0.114668,9.522057
26.52,0.064101,-0.028690,9.615653
26.53,-0.091852,0.269192,9.732879
26.54,-0.256568,-0.071050,9.827954
26.55,-0.103591,0.001612,9.940041
26.56,-0.148584,-0.146283,9.671777
26.57,-0.015541,-0.382523,9.828358
26.58,-0.075672,-0.151577,9.811750
26.59,-0.210945,0.224101,9.788409
26.60,0.086650,0.005205,9.709437
26.61,0.039484,0.126151,9.657176
26.62,0.097642,-0.116856,9.564241
26.63,-0.065491,-0.362160,9.555272
26.64,-0.099344,-0.216430,9.762597
26.65,-0.011645,-0.039611,9.706710
26.66,-0.166271,-0.062426,9.656493
26.67,-0.082152,-0.095685,9.808085
26.68,-0.119510,-0.161359,9.687303
26.69,-0.274304,0.011946,9.587898
26.70,-0.084118,-0.163859,9.678817
26.71,-0.152643,-0.069419,9.831411
26.72,-0.129029,-0.085354,9.573638
26.73,-0.056345,-0.155221,9.746649
26.74,0.052748,-0.218730,9.710022
26.75,-0.201645,-0.165990,9.611711
26.76,-0.139898,0.108629,9.677610
26.77,-0.190920,0.016038,9.499111
26.78,-0.198213,0.003987,9.734974
26.79,-0.169303,-0.213589,9.529052
26.80,-0.120775,-0.292240,9.870757
26.81,-0.026026,0.011611,9.708253
26.82,-0.056893,-0.011396,9.641599
26.83,-0.221070,-0.103245,9.884667
26.84,0.062263,-0.163675,9.578276
26.85,0.021616,-0.294128,9.618617
26.86,-0.198424,-0.013362,9.467767
26.87,0.058151,0.026138,9.907773
26.88,-0.047864,-0.196193,9.987234
26.89,-0.104122,-0.204476,9.491331
26.90,-0.040526,0.037938,9.612039
26.91,-0.084637,-0.185804,9.736644
26.92,-0.014086,0.107144,9.655307
26.93,-0.054874,-0.116768,9.723765
26.94,-0.115607,-0.147190,9.712340
26.95,-0.315890,-0.092299,9.786526
26.96,-0.007116,-0.140811,9.595610
26.97,-0.112720,0.044226,9.757803
26.98,0.028050,0.019064,9.575269
26.99,-0.004847,0.047210,9.674573
27.00,-0.101638,-0.057175,9.489803
27.01,0.065642,-0.129868,9.677038
27.02,-0.029665,-0.071823,9.654227
27.03,-0.031674,-0.117300,9.867256
27.04,-0.064888,0.114434,9.727614
27.05,0.156766,0.063503,9.753825
27.06,-0.127745,-0.062846,9.734305
27.07,-0.077716,-0.158024,9.440156
27.08,-0.184270,0.143169,9.459451
27.09,0.054665,-0.020127,9.695210
27.10,-0.099114,-0.046870,9.779633
27.11,-0.082339,0.160054,9.708573
27.12,-0.084615,-0.081699,9.621313
27.13,-0.011676,-0.053333,9.709474
27.14,-0.165892,-0.037279,9.698171
27.15,-0.281569,-0.162081,9.853877
27.16,0.045981,0.039298,9.846901
27.17,-0.259124,-0.084571,9.669070
27.18,0.100452,-0.056090,9.740437
27.19,0.188435,-0.066676,9.786981
27.20,-0.014842,-0.047170,9.808657
27.21,0.164253,-0.072019,9.981473
27.22,0.008841,0.063630,9.747078
27.23,0.207085,0.020534,9.915560
27.24,-0.036165,0.050125,9.590448
27.25,-0.261820,0.331885,9.664517
27.26,0.015734,0.035724,9.455715
27.27,0.233606,0.131833,9.776860
27.28,0.096140,0.150212,9.847283
27.29,-0.026640,0.061007,9.399836
27.30,0.077880,0.105850,9.784916
27.31,0.158113,0.079768,9.844119
27.32,0.034422,0.105719,9.837122
27.33,0.362927,0.014987,9.594074
27.34,-0.011323,0.029840,9.870724
27.35,0.174015,0.094766,9.764788
27.36,0.148028,-0.140499,9.847234
27.37,-0.024569,0.278851,9.747879
27.38,0.011221,0.361608,9.819860
27.39,0.186995,0.125515,9.922829
27.40,0.084790,0.187477,9.739999
27.41,0.110496,0.239668,9.809369
27.42,-0.123961,-0.046930,9.945599
27.43,0.153417,0.225278,9.753021
27.44,0.111425,0.064326,9.615165
27.45,0.071441,0.391757,9.868419
27.46,0.124484,0.095405,9.975712
27.47,0.034040,0.227855,9.956320
27.48,0.013987,0.098091,9.877053
27.49,0.057758,0.383479,9.449843
27.50,0.032745,0.058518,9.690082
27.51,0.351672,0.259682,9.698332
27.52,0.200884,0.194692,9.787539
27.53,-0.023414,0.167376,10.018699
27.54,0.338390,0.145457,9.632155
27.55,0.043211,0.036805,10.098431
27.56,0.099694,-0.194857,9.732092
27.57,0.204740,0.242778,9.679350
27.58,-0.138573,0.053332,9.906147
27.59,0.070040,0.250251,9.918325
27.60,0.030224,0.149777,9.881022
27.61,0.124056,0.249053,9.683415
27.62,0.144156,0.198477,9.862534
27.63,0.090664,-0.196501,9.648666
27.64,0.085162,0.169853,9.682866
27.65,0.227761,0.051427,9.782317
27.66,0.135950,0.228876,9.681924
27.67,0.104450,0.156239,9.945226
27.68,0.116812,0.153690,9.718021
27.69,0.318845,0.044534,9.769225
27.70,0.118612,-0.036602,9.677987
27.71,0.035393,0.016519,9.947608
27.72,-0.132833,-0.152110,9.710213
27.73,-0.076821,-0.011682,9.964482
27.74,0.038101,-0.121374,9.955329
27.75,0.079923,-0.123135,9.744438
27.76,0.024933,0.058369,9.812171
27.77,0.132335,0.103446,9.742872
27.78,0.020501,0.030550,9.886827
27.79,-0.022501,-0.030340,9.784570
27.80,0.159371,-0.088709,9.755005
27.81,0.249113,-0.017031,9.822158
27.82,-0.048430,-0.080577,9.597558
27.83,0.114728,0.009232,9.813932
27.84,-0.139496,-0.164616,9.924710
27.85,-0.079818,0.107053,9.868592
27.86,0.041605,-0.034889,10.008073
27.87,0.274439,0.095889,9.862922
27.88,0.086475,0.184450,9.914412
27.89,0.144977,0.156788,9.915214
27.90,0.337404,0.267546,10.145914
27.91,0.459914,-0.005221,10.654240
27.92,0.518717,0.273054,10.643096
27.93,1.042951,0.572404,10.796027
27.94,0.992702,0.625817,11.050291
27.95,1.274731,0.924455,11.303846
27.96,1.449065,1.052673,11.747425
27.97,1.765205,1.029619,12.276613
27.98,2.033133,1.100048,12.357613
27.99,2.195533,1.133545,12.444184
28.00,1.940773,1.282445,12.516123
28.01,2.121448,1.346882,12.671446
28.02,1.937825,1.341504,12.410402
28.03,1.809761,1.278121,12.089088
28.04,1.460167,1.372648,11.829267
28.05,1.206107,1.429569,11.847413
28.06,1.097858,1.212236,11.375033
28.07,0.873816,0.917547,11.098930
28.08,0.749145,0.925087,10.376729
28.09,0.421353,0.692276,10.377544
28.10,0.256115,0.500754,10.134310
28.11,-0.122518,0.361604,10.171814
28.12,-0.089708,0.235303,10.153296
28.13,0.008721,0.241309,9.989823
28.14,-0.107931,0.102292,9.783239
28.15,0.101023,-0.062431,9.789428
28.16,-0.167522,-0.113852,9.955507
28.17,-0.079606,-0.017108,9.962377
28.18,-0.081327,-0.025684,9.877965
28.19,0.113792,-0.130448,9.875170
28.20,-0.107810,-0.238887,9.863914
28.21,0.015884,0.040882,9.895047
28.22,-0.018254,0.011989,9.958365
28.23,0.063469,-0.352638,9.947239
28.24,0.054010,0.046377,9.863257
28.25,-0.055043,-0.138790,9.854048
28.26,-0.257531,-0.089637,9.849656
28.27,-0.084662,0.025881,9.753593
28.28,-0.062057,0.089682,9.752771
28.29,-0.028079,0.014096,9.940899
28.30,-0.153569,-0.074691,9.765886
28.31,0.069261,-0.265824,9.980574
28.32,-0.068517,-0.340805,9.860364
28.33,-0.183031,0.011026,9.983218
28.34,-0.129890,0.070202,9.958565
28.35,0.154283,-0.184878,9.988314
28.36,0.000443,-0.115557,9.804528
28.37,0.044506,-0.145878,9.929399
28.38,-0.208185,-0.144611,9.976444
28.39,-0.167545,0.059288,9.657067
28.40,-0.168040,-0.038143,10.113882
28.41,-0.065004,-0.085713,10.194846
28.42,-0.107957,0.267998,10.013329
28.43,-0.144148,-0.213958,9.998726
28.44,-0.124655,0.035636,9.977246
28.45,-0.167207,-0.140444,9.864736
28.46,-0.077148,-0.012501,9.919858
28.47,0.105436,0.052565,10.110882
28.48,-0.166433,0.174113,9.902257
28.49,0.121531,0.091679,9.982598
28.50,0.337744,0.143982,10.206210
28.51,0.274748,0.236403,10.529658
28.52,0.393130,0.240416,10.541700
28.53,0.761758,0.564342,10.904490
28.54,0.755452,0.657414,11.233890
28.55,1.110338,0.824195,11.443273
28.56,1.227582,0.919381,11.579021
28.57,1.346378,1.060179,12.083127
28.58,1.728548,1.370903,12.510034
28.59,1.709765,1.480396,12.702092
28.60,1.900115,1.627992,12.759368
28.61,1.996375,1.568457,12.720724
28.62,1.971692,1.711819,12.388519
28.63,1.585604,1.483840,12.113210
28.64,1.479449,1.454142,11.978504
28.65,1.166901,1.531183,11.562049
28.66,0.834727,1.370928,11.383924
28.67,0.428187,1.098172,10.998898
28.68,0.661244,0.861587,10.853470
28.69,0.181454,0.816495,10.384759
28.70,0.349817,0.619906,10.424786
28.71,0.157242,0.783115,10.430792
28.72,-0.088000,0.558016,10.062211
28.73,0.024356,0.283670,10.063287
28.74,0.216518,0.176968,9.823863
28.75,0.129544,0.152399,10.055374
28.76,-0.124274,0.136643,10.074409
28.77,-0.151619,0.153555,9.839530
28.78,-0.054838,0.286565,9.986946
28.79,-0.085817,0.023170,9.942378
28.80,0.079812,0.405316,9.957173
28.81,0.026889,0.012291,10.016070
28.82,-0.262358,-0.046400,9.975233
28.83,-0.001507,0.323887,9.883451
28.84,-0.075188,0.279240,10.019942
28.85,-0.046310,0.098592,10.059325
28.86,-0.017888,0.166143,9.826462
28.87,0.099149,0.169043,9.904173
28.88,0.075753,0.136399,9.657174
28.89,-0.128384,-0.036034,9.986848
28.90,-0.042236,-0.178960,10.076723
28.91,-0.085770,0.016608,9.869795
28.92,-0.230476,0.334773,9.924815
28.93,-0.038452,0.338101,9.875612
28.94,0.199401,0.082408,9.852987
28.95,-0.224031,-0.002990,9.939517
28.96,-0.018067,0.143243,9.797487
28.97,-0.018493,0.160218,9.874598
28.98,0.026210,0.177072,9.781143
28.99,-0.120397,-0.201033,9.990481
29.00,-0.172429,0.478152,9.941722
29.01,-0.163392,0.231920,9.848061
29.02,0.165205,0.068882,9.913819
29.03,-0.108982,0.002819,9.877908
29.04,-0.047570,0.203746,10.069125
29.05,0.268360,0.140786,9.847399
29.06,-0.068892,0.088328,9.998207
29.07,0.063717,0.128105,9.810745
29.08,0.153713,0.055378,10.023688
29.09,0.151434,0.112998,10.055261
29.10,-0.126580,0.148050,10.062486
29.11,-0.048353,0.098709,10.117786
29.12,0.078342,0.089974,9.955098
29.13,0.279809,0.221306,10.091875
29.14,-0.034172,-0.135956,10.154073
29.15,0.011295,-0.034862,9.784000
29.16,0.141338,0.074510,9.881099
29.17,0.196696,0.001421,9.795934
29.18,0.251013,0.068745,10.215726
29.19,0.136195,0.310196,9.947751
29.20,0.269470,0.191856,10.039690
29.21,0.486958,0.061129,10.310361
29.22,0.775430,0.318953,10.444959
29.23,0.792379,0.484184,10.998717
29.24,1.043616,0.606189,11.120727
29.25,1.165063,0.805544,11.371202
29.26,1.753235,0.940641,11.936798
29.27,1.768545,1.011888,12.250470
29.28,2.057105,1.021239,12.232136
29.29,2.047478,1.228907,12.553667
29.30,2.095577,1.297192,12.698416
29.31,1.867455,1.393072,12.603290
29.32,1.676882,1.526010,12.447098
29.33,1.911049,1.466089,12.412155
29.34,1.553377,1.451452,12.241818
29.35,1.330867,1.206774,11.562282
29.36,0.917864,1.306863,11.085462
29.37,0.737599,1.061259,10.925397
29.38,0.779881,0.839771,10.712809
29.39,0.701814,0.744547,10.453484
29.40,0.294071,0.444539,10.370974
29.41,0.357012,0.139401,10.464885
29.42,0.234182,0.203408,9.823264
29.43,0.153142,0.268199,9.929939
29.44,0.361710,0.108855,10.176575
29.45,0.067789,0.020604,9.862928
29.46,0.260836,-0.112005,10.031809
29.47,0.151871,-0.279852,10.001147
29.48,0.100769,0.100804,10.081244
29.49,0.265519,-0.112608,10.173305
29.50,0.134467,-0.151124,9.950547
29.51,0.087153,-0.188117,9.658553
29.52,0.263419,0.037858,9.804239
29.53,0.246937,-0.010188,10.207794
29.54,0.240329,-0.233990,9.703258
29.55,-0.371471,0.020740,9.970312
29.56,0.146752,-0.136870,9.548240
29.57,0.118141,-0.192715,9.710605
29.58,0.087151,-0.154301,10.023443
29.59,0.163046,-0.212366,9.903790
29.60,0.119571,-0.275896,9.845527
29.61,0.167967,-0.023012,9.783681
29.62,0.052697,-0.141136,9.617626
29.63,0.262755,-0.038846,9.993658
29.64,0.174469,-0.076465,9.856370
29.65,0.144024,-0.042891,9.682367
29.66,0.135996,-0.351791,9.899061
29.67,0.213365,-0.207617,9.975605
29.68,0.194744,-0.032397,9.865521
29.69,0.056173,-0.250604,9.909229
29.70,0.186024,-0.049554,9.897691
29.71,0.085474,-0.257706,9.792755
29.72,0.291942,-0.085156,9.898646
29.73,0.190888,0.109944,9.993312
29.74,-0.018733,0.013748,10.034554
29.75,0.333137,-0.297077,9.999718
29.76,-0.201745,0.031191,9.793804
29.77,0.123970,0.152578,9.976679
29.78,-0.039131,0.274214,9.952056
29.79,0.267158,0.000372,9.786804
29.80,0.068462,-0.215457,9.820421
29.81,-0.060347,0.005454,9.979835
29.82,-0.000330,0.149934,10.076688
29.83,-0.057318,-0.058836,9.629520
29.84,-0.011670,0.094069,10.111987
29.85,-0.017775,-0.126510,10.044576
29.86,-0.071861,0.024326,9.908676
29.87,0.047277,-0.313662,9.846296
29.88,0.058391,-0.123478,9.933845
29.89,-0.111552,-0.004677,9.788684
29.90,-0.194436,-0.042042,9.852656
29.91,0.038417,-0.149013,9.670191
29.92,0.061477,-0.047413,9.632035
29.93,0.081820,0.057564,10.201515
29.94,0.056889,0.013079,9.882959
29.95,0.176039,0.036110,9.901773
29.96,0.103542,0.121945,9.868074
29.97,0.302073,-0.001832,9.755601
29.98,0.349194,0.207606,9.827605
29.99,-0.237206,-0.069145,9.882456
30.00,-0.293209,0.285886,9.841249
30.01,-0.033722,0.192935,9.762551
30.02,0.024429,0.021370,9.934062
30.03,-0.048386,0.033955,9.892371
30.04,0.041996,0.097922,9.920067
30.05,-0.077966,0.149240,9.962818
30.06,-0.131860,0.212869,9.839284
30.07,-0.116724,-0.075396,9.838552
30.08,-0.078526,0.141740,10.068772
30.09,0.043851,-0.161151,9.728092
30.10,-0.118575,0.074944,9.596964
30.11,-0.097566,0.273876,9.936061
30.12,0.002888,-0.067729,9.769183
30.13,-0.091964,-0.086762,9.705463
30.14,0.063407,0.134182,9.979220
30.15,-0.183344,0.276493,9.834008
30.16,-0.211684,0.151132,9.676360
30.17,-0.040993,-0.114622,10.123129
30.18,-0.031169,-0.086436,9.625713
30.19,-0.185518,0.128634,9.838041
30.20,0.077566,-0.023486,9.584639
30.21,0.145484,0.135296,9.885986
30.22,-0.162591,0.143033,9.757291
30.23,0.089591,0.061112,9.960692
30.24,-0.376271,0.337770,9.842502
30.25,0.037297,0.190720,10.032959
30.26,-0.196081,0.264867,9.782648
30.27,0.022778,0.229307,9.617101
30.28,-0.210792,0.099940,9.873915
30.29,-0.104632,0.093478,9.804226
30.30,-0.194487,0.079714,9.583806
30.31,-0.123682,0.195536,9.689663
30.32,0.120948,0.033894,9.733128
30.33,-0.112104,0.316842,10.052988
30.34,0.153695,0.018002,9.933180
30.35,-0.146110,0.130686,9.784356
30.36,0.079047,0.074681,9.897859
30.37,-0.295080,0.045082,9.545308
30.38,-0.134291,0.356657,9.750638
30.39,-0.164037,0.039885,9.884754
30.40,0.085146,0.052407,9.850655
30.41,-0.076705,0.005492,9.750878
30.42,-0.348943,0.086148,9.819908
30.43,-0.254909,0.064931,9.871488
30.44,-0.218417,-0.061521,9.821722
30.45,0.016100,0.017414,9.942450
30.46,0.001641,0.136907,9.865404
30.47,-0.129868,0.182254,9.891235
30.48,-0.158389,0.057043,10.058432
30.49,-0.005239,0.056275,9.933258
30.50,-0.225277,0.000806,10.060013
30.51,-0.033236,-0.021331,9.721082
30.52,-0.041770,-0.076631,9.591082
30.53,-0.117636,-0.158396,9.793251
30.54,-0.035076,-0.061268,9.780176
30.55,-0.068559,0.126088,10.014946
30.56,-0.019037,-0.038789,9.651291
30.57,-0.236642,-0.034868,9.797323
30.58,-0.000541,-0.042705,9.863961
30.59,0.051269,0.145015,9.820120
30.60,-0.030966,-0.121250,9.780961
30.61,0.005192,0.017929,9.854046
30.62,-0.077538,-0.028974,9.953792
30.63,0.045296,-0.018004,10.016595
30.64,-0.051078,-0.002176,9.805057
30.65,-0.193833,-0.029914,9.685120
30.66,0.045240,0.053190,10.013050
30.67,-0.246326,-0.050594,9.646224
30.68,-0.013277,0.157231,10.046653
30.69,-0.090244,-0.051659,9.983032
30.70,-0.094785,-0.266194,10.002252
30.71,-0.017196,0.010167,9.888576
30.72,-0.119728,-0.023891,9.495760
30.73,0.030113,-0.071400,9.644922
30.74,-0.021236,-0.110659,9.832255
30.75,-0.098794,-0.337302,9.693595
30.76,0.139225,-0.321031,9.742944
30.77,0.006606,0.106615,9.871777
30.78,0.061137,-0.164834,9.761091
30.79,0.158859,0.018014,9.613132
30.80,0.160330,-0.293306,9.906697
30.81,0.065332,-0.229434,9.853705
30.82,-0.037107,-0.025025,9.745676
30.83,-0.168897,-0.121189,9.879034
30.84,0.030923,-0.046566,9.791689
30.85,0.140915,-0.114687,9.963702
30.86,0.055516,-0.139698,9.797414
30.87,-0.396934,-0.197867,9.960532
30.88,0.124222,-0.260783,9.511813
30.89,0.134970,0.049829,9.837361
30.90,-0.009610,0.068838,9.716321
30.91,0.148455,-0.244377,9.650711
30.92,0.108488,-0.252463,9.932130
30.93,-0.045889,-0.161695,9.893378
30.94,0.192125,-0.078847,9.486971
30.95,-0.109379,-0.141002,9.867024
30.96,0.038947,-0.058476,9.849018
30.97,0.030020,-0.123313,9.663595
30.98,-0.047207,-0.129897,9.646876
30.99,0.091224,0.174934,9.540138
31.00,0.214871,-0.175912,9.714570
31.01,0.210145,0.085891,9.735988
31.02,0.149973,0.064939,9.871435
31.03,-0.137735,-0.045747,9.796593
31.04,-0.091976,-0.334704,9.609524
31.05,0.090760,-0.096953,9.790391
31.06,0.069109,-0.159344,9.720427
31.07,0.015757,-0.091864,9.624170
31.08,0.306385,-0.218328,9.531573
31.09,0.092576,0.003673,9.840642
31.10,0.146993,0.034998,9.814738
31.11,0.202385,0.061255,9.829271
31.12,0.092266,-0.120790,9.648457
31.13,0.398329,-0.197683,9.773458
31.14,-0.023816,-0.023826,9.556059
31.15,0.017820,0.149365,9.609600
31.16,-0.021178,-0.048244,9.751563
31.17,0.280782,0.002617,9.782697
31.18,0.190704,-0.074829,9.517068
31.19,0.030234,-0.101936,9.596190
31.20,-0.007169,0.042679,9.692244
31.21,0.263532,-0.043759,9.876752
31.22,0.141481,0.022739,9.627894
31.23,0.267944,0.040619,9.760587
31.24,0.091973,0.026864,9.774449
31.25,0.160955,0.057581,9.704332
31.26,0.135858,-0.106228,9.776017
31.27,0.025079,-0.108047,9.549420
31.28,0.082697,0.002022,9.645121
31.29,-0.042220,0.010394,9.936974
31.30,0.158972,-0.044598,9.946073
31.31,0.190693,0.052422,9.852666
31.32,0.217709,0.137862,9.887974
31.33,0.178303,0.176695,9.477563
31.34,0.082244,0.208919,9.599657
31.35,0.283064,-0.113142,9.688217
31.36,0.202994,-0.089798,10.069279
31.37,0.261537,0.020091,9.686612
31.38,0.267990,0.069573,9.834155
31.39,0.077672,0.036509,9.782410
31.40,0.138293,0.004224,9.779163
31.41,0.184007,0.039924,9.726473
31.42,-0.046822,0.141254,9.563371
31.43,-0.042745,-0.068009,9.356939
31.44,-0.059447,0.383394,9.922028
31.45,0.091867,0.118911,9.670028
31.46,0.080309,0.261828,9.518797
31.47,-0.025653,0.092570,9.880701
31.48,0.206540,0.266963,9.939289
31.49,0.240439,0.257886,10.079405
31.50,0.484244,0.411002,10.257508
31.51,0.706609,0.363288,10.147288
31.52,0.677569,0.670248,10.377309
31.53,0.731133,0.420044,10.727038
31.54,1.112528,0.844549,11.198216
31.55,1.272831,0.889310,11.123703
31.56,1.479303,0.904518,11.770471
31.57,1.620068,1.412257,12.188087
31.58,1.840483,1.541854,12.427821
31.59,1.985996,1.194402,12.561683
31.60,2.140346,1.560040,12.666312
31.61,2.062444,1.683990,12.077019
31.62,2.102845,1.672865,12.527268
31.63,1.785780,1.780644,12.101270
31.64,1.534267,1.694682,11.935938
31.65,1.204064,1.473503,11.249331
31.66,0.873423,1.591153,10.832501
31.67,0.703284,1.287802,11.015742
31.68,0.489753,0.981406,10.363231
31.69,0.102736,0.805133,10.224710
31.70,0.160454,0.875677,10.166580
31.71,0.377487,0.499297,10.070679
31.72,0.160430,0.429772,10.021360
31.73,0.023385,0.352788,9.839534
31.74,0.084518,0.344816,9.620613
31.75,-0.218624,0.216167,9.842442
31.76,0.035926,0.033080,9.830059
31.77,0.146167,0.294278,9.466483
31.78,-0.028193,0.079455,9.914635
31.79,-0.231298,0.350654,9.365380
31.80,-0.072497,0.130172,9.857089
31.81,0.126968,0.234762,9.622792
31.82,0.001009,0.149779,9.809935
31.83,-0.203574,0.224768,9.782335
31.84,0.247471,0.129196,9.705527
31.85,-0.190306,0.083282,9.773732
31.86,-0.072150,0.180818,9.698357
31.87,-0.170581,0.342627,9.810309
31.88,-0.173454,0.006641,10.016204
31.89,-0.106372,0.129097,9.522416
31.90,0.021306,0.027728,9.263786
31.91,0.096980,0.083694,9.651882
31.92,-0.107006,0.022597,9.642275
31.93,-0.184593,-0.246848,9.657155
31.94,-0.008572,-0.017415,9.580304
31.95,-0.007604,0.121085,9.832153
31.96,-0.042177,-0.096124,9.516657
31.97,-0.040291,0.100849,9.773221
31.98,-0.089115,0.007144,9.799641
31.99,-0.065870,-0.042845,9.754852
32.00,-0.101189,0.084275,9.779337
32.01,0.047809,0.053434,9.845221
32.02,0.186475,0.019419,9.722159
32.03,-0.058096,0.089832,9.670607
32.04,-0.076390,-0.006117,9.795408
32.05,-0.036249,-0.222428,9.825868
32.06,-0.129950,-0.059589,9.890963
32.07,0.067809,-0.212466,9.566604
32.08,0.071835,0.110984,9.842656
32.09,0.032830,0.179992,9.811181
32.10,0.283294,0.240643,10.169017
32.11,0.301498,0.258530,10.367603
32.12,0.342251,0.406578,10.452051
32.13,0.694676,0.210325,10.660968
32.14,0.903200,0.512624,11.158917
32.15,1.229081,0.495094,11.392322
32.16,1.452484,0.768892,11.945880
32.17,1.557584,1.152940,12.300206
32.18,1.689603,1.228446,12.438353
32.19,1.860617,1.296723,12.490960
32.20,1.943715,1.288224,12.769728
32.21,1.918794,1.248964,12.492733
32.22,1.783095,1.409367,12.232456
32.23,1.560807,1.497793,11.959379
32.24,1.473658,1.351843,11.650262
32.25,1.034587,1.015945,11.413306
32.26,1.174292,1.095152,11.144040
32.27,0.746383,0.711125,10.569451
32.28,0.326016,0.886561,10.432770
32.29,0.324424,0.556367,10.301456
32.30,0.271064,0.349933,10.187023
32.31,0.044973,0.465436,9.963777
32.32,-0.156603,0.321978,9.910294
32.33,-0.144451,0.188888,9.641297
32.34,0.018578,0.348620,9.647746
32.35,-0.272686,0.103529,9.742920
32.36,-0.244413,-0.093415,9.809052
32.37,-0.009841,0.015348,9.762391
32.38,-0.101976,-0.102355,9.607349
32.39,-0.158174,0.070453,9.691360
32.40,-0.132556,-0.055822,9.935578
32.41,-0.247688,-0.047972,9.800154
32.42,-0.010767,-0.267924,9.701539
32.43,-0.163220,-0.086893,9.581157
32.44,-0.128135,-0.099175,9.625455
32.45,-0.019547,-0.212662,9.726839
32.46,-0.089191,-0.113103,9.765159
32.47,-0.140116,-0.030601,9.806331
32.48,-0.291385,-0.079487,9.782108
32.49,-0.005593,-0.244262,9.676606
32.50,-0.037177,-0.103249,9.657544
32.51,-0.105659,-0.122115,10.016347
32.52,-0.164924,-0.038072,9.652543
32.53,-0.035721,-0.046238,9.550300
32.54,0.023633,-0.100983,9.502419
32.55,-0.019023,-0.100648,9.683103
32.56,0.169119,-0.033382,9.864868
32.57,0.060463,0.079316,9.653368
32.58,-0.033616,0.002478,9.941592
32.59,0.071244,0.145158,9.734470
32.60,-0.008097,0.115775,9.891587
32.61,-0.005084,0.164839,9.630936
32.62,0.148499,0.154948,9.633885
32.63,-0.111381,0.183762,9.751328
32.64,0.002638,-0.136665,9.806936
32.65,0.146061,0.084903,9.715129
32.66,0.043826,0.158895,9.781943
32.67,-0.034096,0.186037,9.824209
32.68,-0.191118,-0.068912,9.543781
32.69,-0.255406,0.107830,9.695761
32.70,0.269572,0.043279,9.671726
32.71,0.060822,0.261140,9.679382
32.72,-0.042947,-0.121825,9.803027
32.73,0.072387,-0.042597,9.676269
32.74,-0.079994,-0.162588,9.467112
32.75,-0.002780,0.076915,9.715607
32.76,-0.072748,0.336003,9.600618
32.77,-0.126257,0.063731,9.820070
32.78,-0.206099,0.085860,9.864398
32.79,-0.142016,0.144510,9.448283
32.80,0.175607,0.069484,9.645820
32.81,-0.061669,0.132785,9.805729
32.82,0.125394,0.142212,9.562202
32.83,0.181891,0.001427,9.874320
32.84,0.077561,0.101688,9.920693
32.85,0.052637,0.215617,9.766441
32.86,0.124441,0.256740,9.706195
32.87,0.089363,0.326944,9.531817
32.88,0.330382,0.246599,10.032087
32.89,0.478964,0.296208,10.291270
32.90,0.522788,0.405163,10.393260
32.91,0.217859,0.322012,10.290751
32.92,0.585894,0.413315,10.390467
32.93,0.835299,0.588941,10.934088
32.94,1.115064,0.581717,11.112112
32.95,1.093489,0.927245,11.533216
32.96,1.332397,1.155213,11.844623
32.97,1.918169,1.094657,12.121832
32.98,1.871344,1.373323,12.499812
32.99,1.875397,1.368107,12.665888
33.00,1.962222,1.416413,12.500011
33.01,2.102970,1.844795,12.389562
33.02,1.844186,1.497653,12.010149
33.03,1.797023,1.442569,12.066657
33.04,1.433050,1.560093,11.657582
33.05,1.102550,1.469723,11.535475
33.06,1.243699,1.393058,11.095462
33.07,0.898032,1.409897,10.799687
33.08,0.615890,0.923980,10.673919
33.09,0.433219,0.794967,10.392558
33.10,0.546444,0.911817,10.146518
33.11,0.348693,0.698766,10.270089
33.12,0.349514,0.565923,10.046624
33.13,0.097321,0.301097,9.824318
33.14,0.144556,0.426982,9.791888
33.15,0.168681,0.324915,9.930892
33.16,0.043432,0.202449,9.835653
33.17,0.091374,0.072686,9.643318
33.18,0.028752,0.128321,9.922300
33.19,0.144011,0.293128,9.971922
33.20,-0.064407,-0.050996,9.961311
33.21,0.161139,-0.027124,10.012495
33.22,0.128226,-0.015509,10.087080
33.23,0.064968,0.003041,10.040605
33.24,0.141669,0.043903,9.847184
33.25,0.042210,0.154815,9.771420
33.26,0.003768,0.089446,9.545575
33.27,0.147513,0.035811,9.804366
33.28,0.150694,0.056243,9.876651
33.29,0.017270,0.092392,9.811199
33.30,0.004774,-0.189786,9.541880
33.31,0.051690,0.135106,9.767234
33.32,0.005025,-0.098162,9.898839
33.33,0.251813,-0.057719,9.665995
33.34,0.104228,0.030859,9.833951
33.35,0.065375,-0.024515,9.872313
33.36,-0.051008,0.037525,9.969531
33.37,0.146822,-0.009283,10.053910
33.38,-0.018095,-0.066363,9.762380
33.39,-0.025944,0.146534,9.842130
33.40,0.142125,0.042854,9.847642
33.41,0.092857,-0.010968,9.909572
33.42,-0.257124,0.030872,9.895023
33.43,0.021216,-0.141769,10.020412
33.44,0.052023,0.199065,9.495653
33.45,-0.007024,-0.197072,9.881679
33.46,0.049699,-0.057484,9.892514
33.47,-0.190016,-0.109794,9.792463
33.48,-0.315918,-0.118553,9.509550
33.49,-0.096622,-0.138167,9.819087
33.50,0.050910,-0.180118,9.729260
33.51,-0.373369,0.051416,10.064762
33.52,-0.091031,-0.239230,9.883496
33.53,-0.223980,0.020080,9.720692
33.54,-0.025815,-0.023199,9.545791
33.55,0.234793,-0.149594,9.916946
33.56,-0.029671,-0.042619,9.932816
33.57,-0.019961,-0.127900,9.806239
33.58,0.090205,-0.243264,9.922051
33.59,-0.011376,-0.243953,9.789864
33.60,-0.043144,-0.036168,9.989114
33.61,0.090460,-0.043871,9.979758
33.62,0.032521,-0.088491,9.612407
33.63,0.007191,-0.165501,9.647599
33.64,-0.047404,-0.142108,10.128371
33.65,-0.075547,-0.158809,9.975561
33.66,0.072812,-0.329610,9.669377
33.67,-0.080808,-0.112608,9.627310
33.68,0.104182,-0.056994,9.877298
33.69,-0.172310,-0.111053,9.689329
33.70,0.122374,0.093904,9.805952
33.71,0.003996,-0.237919,9.844704
33.72,-0.171779,-0.195436,9.839689
33.73,0.002683,-0.098628,10.011088
33.74,-0.139201,-0.083584,10.111254
33.75,-0.059850,-0.338990,9.788351
33.76,-0.124878,-0.036297,9.698112
33.77,-0.084973,-0.076370,9.911841
33.78,0.041489,-0.357819,10.086803
33.79,-0.011634,-0.114603,9.802932
33.80,-0.211185,-0.194517,9.979413
33.81,-0.206507,-0.148581,9.744137
33.82,-0.047943,-0.251245,9.865281
33.83,-0.041259,-0.037031,9.700592
33.84,-0.165281,0.128322,9.865734
33.85,0.104805,-0.047231,9.848861
33.86,0.009764,-0.333937,9.951242
33.87,-0.164523,-0.036159,10.115966
33.88,-0.177615,-0.089258,9.813517
33.89,-0.119664,-0.193355,9.588918
33.90,-0.133422,-0.014003,9.841496
33.91,0.055979,0.054049,9.912598
33.92,0.022336,-0.126718,9.899854
33.93,-0.092531,-0.238626,9.850436
33.94,-0.016208,-0.277571,10.081634
33.95,0.000499,-0.110768,9.893295
33.96,-0.091850,-0.044197,9.860417
33.97,-0.050992,-0.082054,9.767064
33.98,-0.028351,-0.096682,9.632249
33.99,-0.041369,0.058936,9.923718
34.00,-0.193446,0.051823,9.912813
34.01,-0.181304,0.025738,9.730968
34.02,-0.134480,0.105265,9.873874
34.03,-0.184399,-0.065986,9.860749
34.04,-0.276003,-0.113118,9.794251
34.05,-0.017630,-0.039032,9.771402
34.06,-0.056571,-0.041939,9.939951
34.07,-0.258142,-0.211829,9.852392
34.08,-0.125490,-0.025907,9.802022
34.09,-0.117740,0.177297,9.764874
34.10,-0.072725,0.145876,9.868046
34.11,-0.223208,0.117750,10.016399
34.12,-0.254565,0.075361,9.916618
34.13,-0.028316,0.238148,9.855198
34.14,-0.273248,-0.058361,9.932281
34.15,-0.115476,-0.042487,10.080793
34.16,-0.124964,0.212488,9.959114
34.17,-0.098805,0.085001,9.927551
34.18,-0.051760,0.005092,9.981173
34.19,0.111764,0.155629,9.870303
34.20,-0.269885,0.040358,9.918829
34.21,0.029455,-0.004148,9.825230
34.22,-0.374893,-0.004309,9.677220
34.23,0.096201,0.141088,9.942898
34.24,-0.313715,0.129953,9.944028
34.25,0.226352,0.289796,9.855794
34.26,-0.110152,0.075281,10.041659
34.27,0.094176,0.075307,9.796179
34.28,0.072211,0.286759,9.649758
34.29,-0.107414,0.233878,9.800692
34.30,-0.095288,0.134343,9.683082
34.31,-0.149597,-0.069258,9.946653
34.32,0.048385,0.021501,9.794539
34.33,-0.093822,-0.006957,10.038178
34.34,-0.138139,0.124267,10.035733
34.35,0.027805,0.058998,9.771773
34.36,-0.141093,0.312202,9.788591
34.37,-0.069634,-0.069117,9.976992
34.38,-0.013991,-0.020555,10.039780
34.39,-0.100591,0.147262,9.621257
34.40,-0.079113,0.179332,9.942867
34.41,0.167467,-0.195090,9.596167
34.42,-0.037823,-0.094518,9.827423
34.43,-0.053037,0.080224,10.057700
34.44,-0.027453,0.272472,10.326317
34.45,0.051548,0.333937,9.871863
34.46,-0.123595,0.055099,9.731038
34.47,0.055190,0.081574,9.834070
34.48,0.038072,-0.001374,9.915521
34.49,-0.203824,0.171824,9.812737
34.50,0.229554,0.275851,9.777383
34.51,0.192952,0.239544,9.847374
34.52,-0.075023,0.081548,9.962777
34.53,-0.110281,-0.019567,9.883929
34.54,0.055112,0.077898,9.784459
34.55,-0.140055,0.238304,9.814300
34.56,0.198029,0.020091,9.850381
34.57,-0.018675,-0.154299,9.768602
34.58,0.235336,0.015617,9.809709
34.59,-0.055078,0.020478,9.998993
34.60,0.033466,-0.169566,9.876801
34.61,0.202018,0.071760,9.663707
34.62,0.014127,0.099469,10.052825
34.63,0.088467,0.256687,9.967797
34.64,0.189769,-0.131704,9.715929
34.65,-0.005313,0.110466,9.858514
34.66,-0.087306,0.133398,9.798859
34.67,-0.108329,0.074270,10.004592
34.68,0.139262,-0.114388,9.857855
34.69,0.118355,-0.126864,9.899745
34.70,0.201467,0.007088,9.883481
34.71,0.043459,0.000752,9.702772
34.72,-0.093158,-0.082673,10.106755
34.73,-0.201708,0.134016,10.002722
34.74,0.426774,-0.074466,9.805346
34.75,0.147746,-0.258960,9.936811
34.76,0.102727,-0.063876,10.046285
34.77,0.121442,0.015448,9.917658
34.78,-0.082167,-0.006256,10.127732
34.79,-0.004310,-0.012191,10.318205
34.80,0.301647,0.122083,9.891956
34.81,0.172711,-0.195747,9.827953
34.82,0.003228,-0.117464,9.770872
34.83,-0.051322,0.114282,9.599358
34.84,0.034935,-0.311564,10.083854
34.85,0.059774,-0.086123,9.859468
34.86,0.344213,0.063761,10.031338
34.87,0.076296,0.058118,10.059310
34.88,-0.043403,-0.012020,9.757076
34.89,0.092647,-0.012460,9.777891
34.90,0.131617,-0.222914,10.152242
34.91,-0.053672,0.063717,9.897944
34.92,0.148232,-0.247932,9.815068
34.93,0.244901,-0.243416,9.760927
34.94,0.116212,-0.062439,9.887178
34.95,0.003544,-0.170334,10.117805
34.96,0.035230,-0.088323,10.002367
34.97,-0.100981,-0.063151,9.931546
34.98,0.081286,0.097055,10.128173
34.99,0.133791,-0.065501,10.100858
35.00,-0.012062,-0.192755,9.951883
35.01,0.327220,-0.038086,10.293407
35.02,0.188338,-0.219558,9.869743
35.03,-0.123171,-0.010400,10.057727
35.04,-0.122121,-0.112201,9.848591
35.05,-0.029053,-0.071618,10.029606
35.06,0.276186,-0.332836,9.868017
35.07,0.192583,-0.388471,9.966955
35.08,0.278685,-0.297527,10.236544
35.09,0.083132,0.093408,10.034733
35.10,0.054737,-0.252347,9.967768
35.11,-0.071952,-0.024934,9.792078
35.12,0.117492,-0.187845,9.926402
35.13,0.049680,-0.137392,9.758432
35.14,0.042663,-0.111499,10.023220
35.15,0.262508,0.093800,10.019186
35.16,0.050617,-0.030416,9.872842
35.17,0.222855,-0.051244,10.130343
35.18,-0.130149,0.061469,10.110100
35.19,0.380204,-0.166607,9.917280
35.20,0.009980,0.041279,9.974924
35.21,0.136711,0.025119,9.812781
35.22,0.152817,0.027810,9.856462
35.23,-0.013862,-0.093354,9.743037
35.24,0.141006,-0.122847,9.826371
35.25,0.144093,-0.170217,9.878094
35.26,-0.049201,-0.158031,9.659616
35.27,-0.051020,-0.166413,9.972170
35.28,0.035293,-0.007433,10.033852
35.29,0.012682,-0.073830,9.888973
35.30,0.190370,0.010461,9.511785
35.31,0.104139,0.022448,9.853287
35.32,0.007970,-0.157983,9.692930
35.33,0.085732,-0.156235,9.801944
35.34,-0.236029,-0.047498,10.089840
35.35,-0.067713,-0.107628,9.545010
35.36,0.037211,-0.114786,9.770803
35.37,0.133061,0.199842,10.000482
35.38,0.019735,-0.182140,9.785312
35.39,0.167302,0.250130,9.773831
35.40,0.093025,0.047511,10.166568
35.41,-0.073154,0.136652,9.934216
35.42,-0.034768,0.127922,10.011246
35.43,0.027659,0.103125,9.948890
35.44,-0.078551,0.233818,9.901458
35.45,0.155707,-0.090257,10.054959
35.46,-0.164395,0.026019,10.143910
35.47,0.003323,-0.052500,9.640627
