time,ax,ay,az
0.00,0.066118,0.223134,9.928543
0.01,-0.091963,0.399465,9.914583
0.02,0.126133,-0.055261,9.887516
0.03,0.152148,0.288381,9.823695
0.04,-0.191690,0.123497,9.741110
0.05,-0.110725,0.213251,9.701556
0.06,0.063927,-0.080021,9.997367
0.07,0.013628,0.294827,9.924981
0.08,0.052490,0.213735,9.721973
0.09,-0.044995,0.115129,9.825738
0.10,0.165694,0.197405,9.779270
0.11,0.156225,0.028072,9.664459
0.12,0.073462,0.050087,9.848401
0.13,0.203378,0.063443,9.766481
0.14,0.126699,-0.104085,9.692412
0.15,-0.030112,0.220591,9.619805
0.16,0.119571,0.258862,9.609064
0.17,-0.037518,0.030157,9.777109
0.18,0.185097,0.154310,9.818304
0.19,0.075732,0.078631,9.708781
0.20,0.061482,0.147626,9.923531
0.21,0.003797,0.030434,9.824351
0.22,0.233953,-0.002980,9.915389
0.23,0.070341,0.226351,9.810113
0.24,0.039015,0.089298,9.726615
0.25,0.049581,0.336272,9.853876
0.26,0.157026,0.095635,9.662209
0.27,0.138204,-0.024781,9.915585
0.28,0.144967,0.229669,9.709940
0.29,0.148112,0.154047,9.970766
0.30,0.354271,0.161326,9.795898
0.31,0.049247,0.212568,9.993101
0.32,0.037173,-0.013192,9.688239
0.33,0.001498,0.045184,9.751574
0.34,0.173459,0.035064,9.900843
0.35,0.235289,-0.104186,10.012428
0.36,0.086291,0.014033,10.082925
0.37,-0.000822,0.200893,9.856427
0.38,0.000972,0.063787,10.108951
0.39,0.177775,-0.131517,9.812139
0.40,0.188569,-0.162049,10.007539
0.41,0.164114,0.219014,9.722821
0.42,0.018512,0.002951,9.914563
0.43,0.125553,-0.069380,9.528900
0.44,0.110900,-0.030067,9.700712
0.45,0.122229,-0.179969,9.924060
0.46,0.199531,0.162582,9.675968
0.47,0.120651,-0.060837,9.920461
0.48,0.174038,0.144966,9.988563
0.49,0.099315,-0.018336,9.792440
0.50,0.124429,0.141650,9.727929
0.51,0.163911,-0.004388,9.798148
0.52,-0.088386,0.061973,9.730265
0.53,0.046325,0.040738,9.852246
0.54,0.026353,0.024200,9.881639
0.55,0.004145,-0.013779,9.825428
0.56,0.045710,-0.088292,10.103595
0.57,0.255943,0.164810,9.769376
0.58,-0.029619,-0.178430,10.065793
0.59,0.188117,-0.073490,9.726111
0.60,-0.132464,-0.076474,9.882958
0.61,0.026767,-0.034056,10.039280
0.62,0.083878,-0.137801,10.032904
0.63,0.132011,-0.052229,9.816538
0.64,0.144255,-0.113804,9.953935
0.65,0.151282,-0.286726,9.936034
0.66,0.011339,-0.098889,9.802312
0.67,-0.005254,-0.235037,9.964962
0.68,0.150168,-0.313813,10.140295
0.69,0.021180,-0.091756,9.946392
0.70,-0.112072,-0.051903,9.960443
0.71,-0.098160,-0.049280,9.976045
0.72,-0.075720,-0.046221,9.678188
0.73,0.091011,-0.347751,9.947928
0.74,0.045143,-0.280476,9.741912
0.75,0.107577,0.118600,9.802427
0.76,-0.029914,-0.244707,10.188426
0.77,0.036993,-0.046309,9.851031
0.78,0.089630,-0.202360,9.783587
0.79,-0.025990,-0.110432,10.049287
0.80,0.062505,-0.195796,9.755954
0.81,-0.075189,-0.051981,9.826684
0.82,-0.042779,-0.102262,10.064873
0.83,-0.048476,-0.171530,9.896667
0.84,-0.149621,-0.242568,9.672719
0.85,0.048872,-0.082982,9.968154
0.86,-0.069327,-0.258966,9.837132
0.87,-0.014917,-0.060228,10.108848
0.88,0.037875,0.205801,9.809024
0.89,0.030394,0.055021,10.041672
0.90,0.053310,-0.018194,10.143697
0.91,-0.041670,-0.111846,9.776556
0.92,-0.083928,-0.331187,9.869216
0.93,-0.045938,-0.253967,9.951240
0.94,-0.242049,0.062087,9.777359
0.95,-0.216372,-0.182981,9.935773
0.96,-0.204540,-0.168298,9.866976
0.97,-0.168530,-0.100265,9.864677
0.98,-0.003873,-0.203663,9.906348
0.99,-0.163427,-0.219100,9.909972
1.00,-0.103007,-0.073463,9.923426
1.01,0.095491,-0.169767,9.817123
1.02,-0.105885,-0.146950,9.823699
1.03,0.022727,-0.146894,9.885273
1.04,-0.180373,0.014521,9.896050
1.05,-0.095473,-0.070927,9.841306
1.06,-0.187220,-0.059320,9.948513
1.07,-0.116211,0.039003,9.649500
1.08,0.023091,-0.044346,9.801694
1.09,-0.287151,-0.055305,9.865151
1.10,-0.029773,0.039972,9.784854
1.11,-0.055309,0.069169,10.133154
1.12,-0.156969,-0.023173,9.908052
1.13,-0.260929,0.009651,9.930492
1.14,-0.080373,-0.088335,9.838412
1.15,-0.154088,-0.092311,9.904163
1.16,-0.064040,0.108736,9.736533
1.17,-0.090641,0.075264,9.883177
1.18,0.097759,0.081894,9.776041
1.19,-0.124255,0.066290,9.868644
1.20,-0.219316,0.043393,9.549338
1.21,-0.075832,0.126600,9.750040
1.22,-0.071678,0.160334,10.113131
1.23,0.064409,0.162458,10.024645
1.24,0.001022,0.045896,10.093251
1.25,-0.056746,0.229184,10.103050
1.26,0.075765,0.094784,10.003158
1.27,-0.242624,0.147737,9.845696
1.28,-0.176764,0.110033,9.764028
1.29,-0.211085,0.109995,10.069919
1.30,-0.146457,-0.003934,9.918535
1.31,-0.264546,0.172342,10.258765
1.32,-0.022671,0.433255,9.858583
1.33,-0.124983,0.050290,10.185984
1.34,-0.274123,0.107030,9.887896
1.35,-0.218689,0.048005,10.096950
1.36,-0.058276,0.045811,10.147483
1.37,0.005714,0.292313,9.766764
1.38,0.145897,0.028603,9.842095
1.39,0.257215,0.054620,9.765383
1.40,-0.041347,-0.077074,9.737800
1.41,-0.208340,0.024189,10.003361
1.42,-0.343853,-0.088471,9.882410
1.43,-0.054189,0.193543,9.917223
1.44,-0.182071,0.454632,9.987706
1.45,-0.132464,0.075360,9.649727
1.46,-0.154077,-0.080208,10.089824
1.47,-0.095428,0.227992,9.860706
1.48,0.051570,0.032698,9.984006
1.49,-0.055224,0.275536,9.996247
1.50,-0.090741,0.085204,10.101123
1.51,-0.193532,0.042412,9.894383
1.52,-0.267682,0.095809,9.611593
1.53,-0.122463,0.206785,9.916727
1.54,-0.067870,0.087005,9.936642
1.55,0.153498,0.052892,9.763548
1.56,-0.040187,0.086606,9.928782
1.57,0.065009,-0.044422,9.857367
1.58,-0.109872,0.153351,9.719688
1.59,-0.189127,-0.111415,10.001432
1.60,-0.159669,0.046766,9.828242
1.61,-0.127751,0.188044,9.849996
1.62,0.217873,0.129937,9.841842
1.63,-0.132885,0.160867,10.079272
1.64,0.069566,0.078490,9.900266
1.65,-0.136102,0.222751,9.916745
1.66,0.087374,0.189258,9.843647
1.67,0.025145,0.127579,9.969790
1.68,-0.036456,0.180940,10.093533
1.69,-0.019139,0.155131,9.994958
1.70,-0.089394,0.007653,10.000035
1.71,0.046150,-0.105697,9.988350
1.72,-0.058526,0.101079,9.709836
1.73,-0.147546,0.111125,9.779994
1.74,-0.150371,0.171313,9.873521
1.75,0.027144,-0.077124,9.800154
1.76,0.199369,-0.078834,9.752285
1.77,0.032509,0.079766,9.638749
1.78,0.002490,0.010626,9.711861
1.79,0.054422,-0.212577,9.863972
1.80,0.180215,0.053247,9.889664
1.81,0.053165,-0.219554,9.787844
1.82,-0.019160,-0.116198,9.909397
1.83,0.166183,0.153937,9.837075
1.84,0.088115,0.205240,10.049945
1.85,0.224148,-0.165076,9.874079
1.86,0.064990,-0.064135,9.993624
1.87,-0.100841,-0.024853,9.924008
1.88,-0.115045,0.178484,9.698677
1.89,0.250225,-0.099630,9.881673
1.90,0.261872,-0.102849,9.720765
1.91,0.036341,0.135183,9.877993
1.92,0.014684,-0.100573,9.788177
1.93,0.238750,0.026249,9.945326
1.94,-0.066834,-0.242363,9.703267
1.95,-0.038800,-0.090207,9.892589
1.96,0.148241,-0.273218,9.969993
1.97,0.026078,-0.204970,10.016233
1.98,0.075118,0.018300,9.781490
1.99,0.058330,-0.092306,9.890252
2.00,0.120570,-0.128341,9.912832
2.01,0.250982,-0.183440,10.102923
2.02,0.094878,-0.123415,9.678204
2.03,0.163105,-0.063944,9.757290
2.04,-0.158467,0.014942,10.276715
2.05,0.083325,-0.420740,9.845092
2.06,-0.010506,-0.208025,9.617813
2.07,-0.054174,-0.091387,9.800212
2.08,-0.012002,-0.124373,9.493334
2.09,0.054462,-0.065900,9.913904
2.10,0.205533,-0.083755,9.992735
2.11,-0.062589,-0.153755,9.750914
2.12,0.101093,-0.181458,9.811817
2.13,0.040039,-0.148511,10.006194
2.14,0.059423,0.018233,9.631007
2.15,0.219562,-0.207771,9.690163
2.16,0.164173,-0.127529,9.842385
2.17,0.260337,-0.097800,9.768125
2.18,0.081438,0.067884,9.831432
2.19,0.016477,-0.154701,9.694762
2.20,0.073019,-0.002664,9.900797
2.21,0.128753,0.031308,9.848999
2.22,0.120496,-0.122744,9.945868
2.23,-0.031285,-0.138701,9.896121
2.24,0.109117,-0.150984,9.896077
2.25,0.124945,-0.140045,9.663725
2.26,0.398837,-0.004456,9.934232
2.27,0.321029,-0.076637,9.818002
2.28,-0.007628,-0.073298,9.840047
2.29,0.059115,-0.233520,10.009167
2.30,-0.083284,-0.211345,9.760723
2.31,0.020061,0.165414,10.049637
2.32,0.127328,-0.109498,10.061718
2.33,0.232560,-0.177306,9.963895
2.34,-0.001335,0.091401,9.720226
2.35,0.005852,-0.042342,9.550434
2.36,-0.175231,-0.002448,10.006548
2.37,0.060919,-0.083909,9.870095
2.38,-0.049152,-0.100959,9.749158
2.39,0.012611,-0.078312,10.016763
2.40,-0.031365,-0.219011,9.730819
2.41,0.060174,-0.058642,9.791024
2.42,-0.141901,-0.007473,9.922853
2.43,-0.109560,0.184244,9.692422
2.44,0.319375,-0.022223,9.831952
2.45,-0.093322,-0.307302,9.998707
2.46,-0.073215,-0.033069,9.874727
2.47,0.275989,0.312421,10.018750
2.48,0.401263,0.093178,10.001749
2.49,-0.090898,-0.102493,9.843059
2.50,0.002479,0.071430,9.513758
2.51,0.084588,-0.082748,9.685016
2.52,0.247944,-0.150204,9.945610
2.53,-0.081034,-0.023347,9.620625
2.54,0.004875,0.036011,9.790840
2.55,0.124612,-0.192515,9.882887
2.56,0.080761,-0.097843,10.040181
2.57,-0.018838,0.050350,9.752933
2.58,0.008776,0.010786,9.742469
2.59,-0.140200,0.120007,9.824622
2.60,-0.001500,-0.057299,9.881112
2.61,0.001134,0.193896,9.811658
2.62,0.072696,-0.009073,9.983850
2.63,-0.001611,0.361221,9.733288
2.64,0.153867,-0.002887,9.878198
2.65,0.267616,0.120165,9.953385
2.66,0.235381,0.360568,9.886295
2.67,0.357178,0.581855,10.144003
2.68,0.452897,0.505364,10.178699
2.69,0.616294,0.635194,10.463879
2.70,0.740780,0.684930,10.657971
2.71,1.117997,0.689621,11.057747
2.72,1.358965,0.897601,11.396219
2.73,1.942270,0.966215,11.978959
2.74,2.217283,1.121979,12.906200
2.75,2.411949,1.491968,13.541296
2.76,2.590796,1.477025,14.025690
2.77,2.823715,1.812443,14.847822
2.78,3.312825,1.768575,15.016118
2.79,3.335227,2.093614,15.609458
2.80,3.405235,2.109725,15.942031
2.81,3.088460,2.419787,15.670028
2.82,3.269415,2.341095,15.360432
2.83,2.994104,2.468101,14.393425
2.84,2.525636,2.212195,14.104947
2.85,2.279774,2.258977,13.488383
2.86,2.025054,2.052503,12.786368
2.87,1.656575,2.010898,12.186185
2.88,1.289078,1.896435,11.437252
2.89,1.015463,1.690692,10.961542
2.90,0.739420,1.470241,10.421736
2.91,0.571378,1.279018,10.299998
2.92,0.554456,1.000114,9.954172
2.93,-0.067020,0.990908,9.738452
2.94,0.109062,1.038295,9.758877
2.95,0.082862,0.628087,10.068515
2.96,0.043329,0.526293,9.787514
2.97,-0.074029,0.790710,9.837746
2.98,-0.265242,0.399821,9.724641
2.99,-0.031535,0.429787,9.539942
3.00,0.125768,0.397130,9.918200
3.01,-0.272342,0.340777,9.480816
3.02,0.011093,0.030741,9.705651
3.03,-0.134719,0.147171,9.774366
3.04,-0.104417,-0.050036,9.813104
3.05,-0.224563,0.413278,9.678013
3.06,-0.139119,-0.091085,9.521314
3.07,0.056515,-0.040977,9.665399
3.08,-0.029883,-0.052702,9.671656
3.09,0.107921,-0.117843,9.667185
3.10,0.041317,0.215231,9.910167
3.11,-0.047170,0.335892,9.603400
3.12,0.109647,-0.018845,9.814392
3.13,-0.046590,-0.126642,9.793371
3.14,0.000565,-0.242720,9.904634
3.15,-0.133788,-0.009463,9.750497
3.16,-0.089503,-0.023880,9.878864
3.17,-0.180351,-0.069733,9.742970
3.18,0.023033,0.029380,9.826877
3.19,-0.236056,0.044666,9.554638
3.20,0.000392,0.030480,9.394683
3.21,-0.115086,-0.051727,9.815897
3.22,0.049734,-0.151451,9.822411
3.23,0.000790,0.055226,9.827626
3.24,0.130770,-0.028534,9.686582
3.25,0.001698,0.071270,9.967657
3.26,-0.272825,0.054254,9.693743
3.27,-0.090300,-0.216303,9.816085
3.28,-0.220893,-0.222838,9.839454
3.29,-0.140336,-0.146330,9.995879
3.30,0.105407,-0.187232,9.709928
3.31,0.002857,0.025461,9.661930
3.32,-0.155137,-0.027564,9.542708
3.33,-0.190445,0.057776,9.968858
3.34,-0.062317,-0.030796,9.809611
3.35,-0.209610,-0.057421,9.813136
3.36,-0.141456,0.057598,10.185147
3.37,-0.020702,-0.033731,9.793424
3.38,0.083340,-0.085466,9.564710
3.39,0.020666,0.080674,9.718734
3.40,-0.324366,-0.086297,9.608825
3.41,-0.009854,-0.139567,9.689015
3.42,-0.034645,-0.206297,9.687224
3.43,0.009518,-0.023883,9.660562
3.44,0.156985,0.037939,9.546853
3.45,-0.281317,-0.118607,9.964039
3.46,-0.101388,0.042622,9.782112
3.47,0.043763,-0.352281,9.707901
3.48,-0.213596,-0.123841,9.844739
3.49,0.156679,-0.123059,9.803831
3.50,0.027162,-0.206300,9.775700
3.51,0.087964,0.166441,9.832233
3.52,-0.078708,-0.127876,9.754324
3.53,0.090900,-0.168918,9.828654
3.54,0.124916,-0.116681,9.839518
3.55,0.028100,-0.359688,9.756131
3.56,0.031738,-0.209837,9.701774
3.57,0.039502,0.000283,9.946173
3.58,-0.093099,-0.191985,9.664310
3.59,-0.003771,-0.214537,9.785309
3.60,-0.000957,0.043753,9.787790
3.61,0.066745,0.049360,9.643834
3.62,0.144084,-0.047277,9.615416
3.63,-0.099580,-0.161545,9.678322
3.64,0.015749,-0.133058,9.658311
3.65,0.211794,-0.197990,9.522454
3.66,-0.051982,-0.217823,9.634764
3.67,-0.058238,-0.220531,9.762637
3.68,0.067845,-0.165917,9.902001
3.69,0.147978,-0.212274,9.801798
3.70,0.051051,-0.271924,9.359673
3.71,0.212124,-0.053944,9.812826
3.72,0.158370,-0.047945,9.644349
3.73,0.159413,0.132337,9.785380
3.74,0.127659,-0.147467,9.719440
3.75,0.343180,-0.027095,9.693923
3.76,0.041863,-0.020321,9.706079
3.77,-0.171398,-0.083388,9.716756
3.78,0.263995,0.041450,9.907627
3.79,0.018937,0.050360,9.716185
3.80,0.089099,0.001986,9.870451
3.81,0.235510,-0.062424,9.849613
3.82,-0.111771,-0.068851,9.810975
3.83,-0.067620,-0.183953,9.467038
3.84,-0.107522,-0.109960,9.873084
3.85,-0.008566,-0.080693,9.652261
3.86,0.141753,-0.132855,9.816216
3.87,0.154547,0.064109,9.579574
3.88,0.128191,0.165892,9.549675
3.89,-0.069768,-0.073407,9.992437
3.90,-0.170469,0.085883,9.582549
3.91,0.123875,-0.051927,9.879029
3.92,0.076964,0.060983,9.739648
3.93,0.213280,0.046554,9.673276
3.94,0.278914,0.241311,9.742848
3.95,0.264232,0.136747,9.597488
3.96,0.413534,0.399732,9.829840
3.97,0.451969,0.321497,9.765165
3.98,0.623401,0.359496,9.993667
3.99,0.648640,0.388260,10.375061
4.00,0.926234,0.685393,10.559370
4.01,1.227411,0.893634,10.691454
4.02,1.596094,0.963926,11.498805
4.03,1.773892,1.356359,11.962065
4.04,2.223976,1.424449,12.555632
4.05,2.469448,1.385747,13.454588
4.06,2.806542,1.554023,14.044212
4.07,3.197450,1.812368,14.559026
4.08,3.073675,1.807705,15.507871
4.09,3.293154,2.183077,15.589147
4.10,3.316696,2.198466,15.698890
4.11,3.166448,2.270135,15.534683
4.12,3.226956,2.374735,15.414033
4.13,3.181105,2.518305,14.648224
4.14,2.777494,2.316868,13.850643
4.15,2.513895,2.233893,13.254187
4.16,2.278745,2.348245,12.816265
4.17,1.964874,2.175355,12.078366
4.18,1.471572,1.889844,11.342533
4.19,1.346313,1.780646,11.089683
4.20,0.936799,1.643527,10.626795
4.21,0.608567,1.497779,10.206327
4.22,0.462246,1.125543,10.023763
4.23,0.218537,0.941737,9.960646
4.24,0.185472,0.867369,9.712926
4.25,0.172439,0.716671,9.777728
4.26,0.256933,0.627386,9.789605
4.27,0.328577,0.667761,9.493039
4.28,-0.070204,0.473306,9.693518
4.29,0.124768,0.433752,9.672934
4.30,-0.059603,0.193564,9.857077
4.31,0.113539,0.227769,9.453968
4.32,0.034462,0.307199,9.658464
4.33,-0.174512,0.270970,9.644408
4.34,0.152397,0.083196,9.846385
4.35,-0.035354,0.166375,9.706068
4.36,-0.030352,0.392621,9.963842
4.37,-0.098078,0.112256,9.805345
4.38,-0.051607,0.019675,9.655466
4.39,0.074875,0.072610,9.746726
4.40,-0.002570,0.096637,9.663892
4.41,0.056176,0.060596,9.834078
4.42,0.056747,0.068832,9.527569
4.43,0.168362,-0.106316,9.599085
4.44,-0.034696,-0.054050,9.778537
4.45,-0.174237,0.038255,9.886696
4.46,0.127598,0.031111,9.407177
4.47,-0.043702,-0.022225,9.908253
4.48,0.126377,0.019227,9.696595
4.49,0.035190,0.042500,9.452869
4.50,-0.029980,0.136571,9.296780
4.51,0.024198,0.012552,9.503331
4.52,0.213076,0.066925,9.715120
4.53,0.224828,-0.051419,9.709099
4.54,-0.019420,0.076740,9.807430
4.55,-0.011826,0.047676,9.642323
4.56,0.094834,0.100981,9.564607
4.57,-0.139019,0.077200,9.662393
4.58,-0.000751,0.056753,9.725434
4.59,-0.046954,-0.031156,9.753552
4.60,-0.009261,0.004637,9.611288
4.61,-0.149957,0.097508,9.848511
4.62,-0.243664,-0.113657,9.635863
4.63,-0.304574,-0.116037,9.601658
4.64,-0.192736,-0.023990,9.648055
4.65,-0.116454,-0.000967,9.875050
4.66,-0.099286,-0.154624,9.706574
4.67,0.165751,-0.069517,9.628538
4.68,0.063469,-0.076512,9.856040
4.69,-0.187153,-0.335616,10.026995
4.70,-0.032342,-0.100536,9.757002
4.71,-0.125194,-0.097310,9.901032
4.72,-0.112654,-0.101749,9.874002
4.73,-0.058383,0.083488,9.644829
4.74,-0.008318,-0.236044,9.734025
4.75,-0.125227,-0.192640,9.551428
4.76,0.041350,-0.410488,9.702991
4.77,-0.225038,-0.157870,9.644724
4.78,-0.088833,-0.150562,9.676705
4.79,0.220646,-0.166991,9.628852
4.80,-0.065678,0.024642,9.694381
4.81,0.078277,-0.007263,9.809835
4.82,-0.083877,-0.103219,9.719350
4.83,-0.026203,-0.158824,9.475833
4.84,-0.103633,0.007244,9.633164
4.85,-0.118074,-0.119574,9.525690
4.86,-0.191853,-0.216453,9.773369
4.87,-0.047252,-0.325019,9.810468
4.88,-0.201527,-0.172586,9.776733
4.89,-0.019809,-0.029377,9.631400
4.90,0.030338,0.153196,9.777026
4.91,-0.056010,-0.112397,9.677489
4.92,-0.134322,-0.211181,9.584801
4.93,-0.045355,-0.260829,9.848878
4.94,-0.136612,-0.051441,9.860395
4.95,0.013074,-0.328220,9.879588
4.96,-0.318463,-0.048959,9.662454
4.97,-0.138351,-0.015152,9.913622
4.98,-0.336242,-0.058935,9.680305
4.99,-0.275900,-0.135381,9.841800
5.00,0.068142,-0.038660,9.679694
5.01,0.012995,-0.083034,9.720783
5.02,-0.179539,-0.193620,9.414102
5.03,-0.272127,0.125587,9.711735
5.04,-0.446009,-0.134273,9.767701
5.05,-0.153672,0.006200,9.698503
5.06,0.204187,-0.370895,10.002768
5.07,-0.031296,0.080139,9.595211
5.08,-0.146895,0.112699,9.680245
5.09,-0.018659,-0.048023,9.633951
5.10,-0.254046,0.030629,9.683811
5.11,-0.090835,0.049950,9.910503
5.12,-0.025822,-0.069556,9.978835
5.13,-0.022138,0.104486,9.684129
5.14,0.121196,-0.018892,9.699348
5.15,0.122401,0.054025,9.670380
5.16,0.237897,0.322446,10.068668
5.17,0.179415,0.377020,10.128989
5.18,0.507458,0.262150,10.090762
5.19,0.771161,0.360673,10.107900
5.20,0.676607,0.488350,10.399942
5.21,0.945446,0.785894,10.983186
5.22,1.509212,0.724040,11.518085
5.23,1.652759,1.044740,11.736613
5.24,2.187941,1.258237,12.650594
5.25,2.309927,1.329484,13.641872
5.26,2.860737,1.632673,14.103635
5.27,2.983132,1.640792,14.998434
5.28,3.217393,1.806101,15.408902
5.29,3.514329,1.851702,15.509809
5.30,3.333394,2.205492,15.740524
5.31,3.220350,2.078394,15.645759
5.32,3.146014,2.268093,15.189020
5.33,3.041767,2.239770,14.660606
5.34,2.525047,2.109859,14.353704
5.35,2.472976,2.117408,13.289315
5.36,1.994879,2.279508,12.859558
5.37,1.860062,2.033248,11.979927
5.38,1.114708,1.760605,11.454910
5.39,1.017118,1.773644,11.057436
5.40,0.656549,1.563258,10.520711
5.41,0.548726,1.833370,10.406649
5.42,0.507824,1.290960,9.845037
5.43,0.325002,1.053523,10.061691
5.44,0.217786,1.120634,9.570420
5.45,0.158331,0.591951,9.832986
5.46,0.152877,0.700502,9.954664
5.47,-0.025000,0.819600,9.905993
5.48,0.160423,0.472465,9.628891
5.49,0.143119,0.199194,9.643230
5.50,0.103482,0.294156,9.709320
5.51,0.121428,0.463072,9.831807
5.52,0.089888,0.291386,9.521884
5.53,0.299582,0.112589,9.805411
5.54,0.046766,0.105710,9.851900
5.55,0.022631,0.101685,9.769769
5.56,-0.028478,0.198011,9.884056
5.57,-0.059391,0.304839,9.842958
5.58,-0.082323,0.262952,9.736934
5.59,-0.037150,0.185832,9.542828
5.60,0.063451,-0.032806,9.833702
5.61,0.114399,-0.035521,9.682723
5.62,0.082686,0.185264,9.736314
5.63,-0.013139,-0.042397,9.885487
5.64,0.188830,0.089932,10.017963
5.65,0.171525,0.151463,9.815333
5.66,0.065525,-0.023647,9.899354
5.67,0.008120,-0.012271,9.620680
5.68,0.153965,0.096962,9.858401
5.69,0.112289,0.166126,9.816760
5.70,-0.082571,0.230308,9.998356
5.71,0.084409,0.172809,9.751714
5.72,0.125263,0.105638,9.794662
5.73,-0.013005,0.003894,9.977835
5.74,0.118766,-0.038626,9.817824
5.75,-0.077682,0.024835,9.676577
5.76,0.258035,0.131410,10.190145
5.77,0.248126,0.118518,9.683013
5.78,0.068632,-0.178124,9.826054
5.79,0.142993,-0.024831,9.884742
5.80,-0.189487,0.209431,9.874762
5.81,-0.038852,0.069699,9.811817
5.82,0.064743,-0.114671,9.813598
5.83,-0.028692,0.333129,9.807652
5.84,0.185540,0.041912,9.685387
5.85,0.339217,0.086364,10.143719
5.86,-0.042042,0.082961,9.812957
5.87,-0.001852,-0.014393,9.928388
5.88,0.126271,-0.062953,9.799024
5.89,0.290608,0.273544,9.797262
5.90,-0.050270,0.133875,9.784216
5.91,0.125325,0.106641,9.632043
5.92,0.312908,0.071665,9.827574
5.93,-0.105060,-0.123391,9.794113
5.94,-0.061890,0.144813,10.016136
5.95,0.039584,-0.115146,9.685608
5.96,0.026416,0.014574,9.773363
5.97,0.184763,-0.221556,9.729393
5.98,0.114510,-0.275089,10.058135
5.99,-0.129327,0.002715,9.735464
6.00,0.143575,-0.137790,9.936897
6.01,0.010381,-0.284532,9.994986
6.02,0.230485,0.014005,9.839688
6.03,0.000013,0.198611,9.668367
6.04,-0.003388,0.106136,9.671108
6.05,0.135537,-0.096174,9.983418
6.06,0.159663,-0.068782,9.687523
6.07,0.119314,0.032281,9.919839
6.08,-0.139379,0.056167,9.881905
6.09,0.124733,-0.123792,9.919629
6.10,-0.066743,-0.082373,9.933779
6.11,0.082743,-0.054124,9.737963
6.12,-0.119268,-0.027267,9.733015
6.13,0.102148,-0.113038,9.970583
6.14,-0.051251,-0.114612,9.783282
6.15,-0.111478,0.062456,9.487258
6.16,0.124942,0.039314,9.963985
6.17,0.065080,-0.051022,9.728956
6.18,-0.040838,0.095727,9.940296
6.19,0.203698,-0.158962,10.070748
6.20,-0.026640,0.080383,9.878948
6.21,0.026741,-0.050816,10.016848
6.22,0.051781,0.275304,9.899803
6.23,-0.058249,-0.261371,10.101333
6.24,0.069228,-0.201801,9.731211
6.25,-0.054758,-0.069378,9.879561
6.26,-0.043586,-0.072270,9.975748
6.27,0.165875,0.114028,9.855634
6.28,-0.125968,-0.199993,10.044379
6.29,-0.294085,-0.010744,9.823351
6.30,0.185312,0.020865,10.174306
6.31,0.294480,-0.033119,10.182450
6.32,-0.063497,-0.231795,9.925571
6.33,-0.250693,0.053902,9.964175
6.34,-0.058917,0.034178,10.054364
6.35,-0.059366,-0.039464,9.722031
6.36,-0.051140,-0.084731,9.705258
6.37,-0.165252,-0.079729,10.065526
6.38,0.034643,-0.113695,9.928665
6.39,0.024820,-0.024518,9.859265
6.40,-0.220621,-0.094628,9.893191
6.41,0.039489,-0.196932,9.558236
6.42,0.198839,-0.217485,9.866241
6.43,-0.029861,-0.178250,9.788120
6.44,-0.093927,-0.057517,10.022692
6.45,-0.073377,-0.083397,10.034072
6.46,0.014673,-0.050143,9.976098
6.47,-0.269588,-0.011548,9.951310
6.48,-0.044857,-0.142435,9.686890
6.49,-0.114039,0.113353,9.979770
6.50,0.152037,-0.089889,9.985746
6.51,-0.093039,-0.104892,10.072497
6.52,0.125659,0.010001,10.195247
6.53,-0.209198,-0.263171,9.662256
6.54,-0.008447,-0.132469,9.845333
6.55,-0.042665,0.085389,9.796296
6.56,-0.187256,-0.235498,9.924847
6.57,-0.063562,0.112491,9.903042
6.58,0.058875,0.165153,9.868854
6.59,-0.127157,-0.055049,10.045937
6.60,-0.292906,0.029796,9.748310
6.61,-0.093440,0.134572,9.757174
6.62,-0.200976,-0.050229,9.759951
6.63,-0.135008,0.115412,9.853297
6.64,-0.104847,-0.063786,9.732128
6.65,-0.300751,-0.035117,9.897706
6.66,-0.290853,-0.068319,9.881701
6.67,-0.039911,0.074084,9.795109
6.68,-0.161152,0.177245,10.027888
6.69,-0.406744,0.021481,9.897558
6.70,-0.005219,-0.103708,10.054973
6.71,-0.067014,-0.075806,9.879199
6.72,-0.185524,0.106812,9.903409
6.73,-0.257882,0.286240,9.828287
6.74,0.000626,0.117949,9.906360
6.75,-0.057293,0.030478,10.007326
6.76,0.187542,0.175753,9.850305
6.77,-0.046497,0.063027,9.980790
6.78,-0.047974,0.055842,9.794866
6.79,-0.110548,-0.002191,10.015632
6.80,0.013957,0.296310,9.829495
6.81,0.001272,-0.159109,10.032472
6.82,0.092632,0.264594,9.926751
6.83,-0.095392,0.142721,10.140629
6.84,-0.048162,0.186374,9.783590
6.85,0.000179,0.485224,9.769419
6.86,0.228091,0.253861,9.942320
6.87,0.416220,0.327750,9.920085
6.88,0.317982,0.477203,10.052960
6.89,0.497000,0.640632,10.530357
6.90,0.801991,0.651100,10.721300
6.91,0.992783,0.643157,11.030161
6.92,1.432532,0.869657,11.524011
6.93,1.373976,1.280385,12.078240
6.94,1.887883,1.297204,13.061564
6.95,2.235923,1.508493,13.446211
6.96,2.373686,1.588817,14.081780
6.97,2.816971,1.701097,15.033027
6.98,3.041139,2.129988,15.418411
6.99,3.266323,2.037088,16.076488
7.00,3.473638,2.114520,15.836134
7.01,3.266581,2.379623,15.909355
7.02,3.038319,2.210400,15.599841
7.03,2.942344,2.241027,14.848166
7.04,2.800093,2.294457,14.162302
7.05,2.240228,2.240415,13.652264
7.06,1.910782,2.187343,12.910146
7.07,1.749572,2.295331,11.963375
7.08,1.335407,1.949914,11.419070
7.09,1.148974,1.472020,10.740940
7.10,0.816904,1.632808,10.803822
7.11,0.691585,1.428741,10.405126
7.12,0.313348,1.259711,10.222143
7.13,0.304504,1.118909,9.875289
7.14,0.182393,0.929452,9.872876
7.15,-0.008901,0.781726,9.907050
7.16,-0.099438,0.730468,9.848774
7.17,0.138207,0.475560,9.941793
7.18,-0.006388,0.325733,9.997361
7.19,-0.098669,0.715895,10.228305
7.20,0.006468,0.194533,9.905063
7.21,0.151113,0.232363,10.062567
7.22,-0.257844,-0.008215,9.789362
7.23,-0.162230,0.145583,9.670490
7.24,-0.091024,-0.012173,9.855203
7.25,0.197884,0.021333,9.680429
7.26,0.059518,0.179559,9.905761
7.27,0.120865,0.094496,9.794037
7.28,-0.104812,0.092809,9.629288
7.29,-0.099117,-0.198920,10.145504
7.30,0.092162,0.224754,9.826765
7.31,0.048577,-0.146779,9.672308
7.32,0.110547,0.172465,10.026859
7.33,0.025240,0.105035,9.798637
7.34,0.084145,0.045584,10.052782
7.35,0.072688,-0.132119,9.796989
7.36,0.149928,-0.016917,9.823432
7.37,0.156251,-0.097017,9.946916
7.38,-0.132231,-0.042263,9.981161
7.39,-0.204849,-0.080833,10.005158
7.40,0.187625,-0.300449,9.884455
7.41,0.212454,0.073966,9.970462
7.42,-0.050119,-0.075077,10.000270
7.43,-0.148483,-0.128073,9.923377
7.44,0.088834,-0.141538,9.874729
7.45,0.190811,-0.035528,9.691753
7.46,0.296888,-0.189872,9.977361
7.47,0.145101,-0.357147,9.898753
7.48,0.040410,-0.041392,9.834304
7.49,-0.020392,-0.031486,10.070449
7.50,0.089823,-0.121069,9.691005
7.51,0.054096,-0.237992,10.120397
7.52,-0.030348,-0.092490,9.886433
7.53,0.338653,-0.281608,9.933314
7.54,0.308254,-0.231612,9.832855
7.55,0.231479,-0.200679,9.654060
7.56,-0.014343,-0.011342,9.867185
7.57,0.199652,-0.157910,9.932864
7.58,0.174580,-0.169682,9.979931
7.59,0.151589,0.117328,9.856786
7.60,0.248984,-0.075991,9.576796
7.61,0.175691,-0.078409,9.667150
7.62,0.188552,-0.164004,10.169488
7.63,0.176363,-0.191505,9.728463
7.64,0.140895,-0.382357,10.080409
7.65,-0.114088,-0.003534,9.749044
7.66,0.109807,-0.065529,9.853459
7.67,0.032736,-0.140119,9.965709
7.68,-0.054513,-0.134129,9.762520
7.69,0.300356,-0.028120,10.099418
7.70,0.305370,-0.301573,9.886261
7.71,0.260233,-0.184102,9.939320
7.72,0.126872,-0.247742,9.836471
7.73,0.257326,0.103359,9.965283
7.74,0.095588,-0.001749,10.093211
7.75,0.117256,-0.368533,9.852911
7.76,-0.039628,-0.283023,10.112553
7.77,0.137785,-0.114202,9.783864
7.78,0.095843,-0.151755,9.975548
7.79,-0.069376,-0.250530,9.936131
7.80,0.079039,0.145418,9.717125
7.81,0.073755,-0.046612,9.895725
7.82,0.297069,-0.023124,9.865881
7.83,0.186610,-0.158959,9.744454
7.84,0.078526,0.015103,9.913065
7.85,0.104763,-0.112718,9.882462
7.86,0.077881,-0.096413,9.850850
7.87,0.045806,0.015711,9.850435
7.88,-0.062238,-0.248139,9.846452
7.89,0.046945,0.144090,9.806587
7.90,-0.027116,-0.020389,9.876647
7.91,-0.090343,0.116918,9.765922
7.92,0.118268,-0.160111,10.227017
7.93,0.101070,-0.135770,9.656746
7.94,-0.163079,-0.157889,9.771177
7.95,0.033895,0.018739,9.781227
7.96,0.165605,0.004674,10.136708
7.97,0.171166,-0.049688,9.665279
7.98,0.165899,-0.104667,9.908910
7.99,0.047604,-0.121695,9.883523
8.00,-0.056016,0.040811,9.895530
8.01,-0.078495,0.011088,10.023237
8.02,0.104754,0.010137,10.024119
8.03,0.129204,0.309937,9.799036
8.04,0.270497,0.154163,9.905589
8.05,0.296874,0.365642,9.647178
8.06,0.219677,0.209466,9.973343
8.07,0.184483,0.375577,9.932470
8.08,0.427031,0.426119,10.148976
8.09,0.661117,0.330387,10.134752
8.10,0.821822,0.821981,10.704778
8.11,1.029292,0.765698,10.784863
8.12,1.419502,1.016551,11.522878
8.13,1.649003,0.993464,11.912950
8.14,1.971350,1.229263,12.633255
8.15,2.421088,1.314969,13.631433
8.16,2.651996,1.737025,14.268681
8.17,3.004155,1.790078,15.000877
8.18,3.220095,1.949211,15.584315
8.19,3.184132,2.203201,15.599134
8.20,3.306759,2.291136,16.034879
8.21,3.486936,2.328714,15.499925
8.22,3.034949,2.119422,15.465935
8.23,2.701514,2.226032,14.764214
8.24,2.451050,2.174061,14.047188
8.25,2.355060,2.333165,13.544621
8.26,2.011936,2.186312,12.871091
8.27,1.650573,1.891258,12.197161
8.28,1.483822,1.904820,11.514332
8.29,0.720678,1.600078,11.020765
8.30,0.830247,1.613290,10.699542
8.31,0.753045,1.255546,10.388695
8.32,0.254655,1.351866,10.224106
8.33,0.207008,1.172504,10.043222
8.34,0.058224,1.203365,10.046282
8.35,-0.035086,0.934979,9.646960
8.36,-0.021331,0.654929,9.824462
8.37,0.151353,0.691034,9.630648
8.38,0.174937,0.327361,9.852666
8.39,-0.102900,0.296421,10.037857
8.40,0.154812,0.382418,9.738108
8.41,-0.076888,0.026359,9.820042
8.42,0.124391,0.234670,9.906497
8.43,-0.100591,0.079758,9.509760
8.44,-0.076051,0.185124,9.724930
8.45,-0.049706,0.020670,9.847898
8.46,0.286497,0.182888,9.390152
8.47,0.006046,0.120094,9.657854
8.48,-0.181934,0.274489,9.947609
8.49,0.018419,0.098031,9.932794
8.50,-0.141945,-0.002734,9.843667
8.51,-0.157832,0.053194,9.913660
8.52,0.009555,-0.084480,9.819160
8.53,-0.096041,0.120008,9.865696
8.54,-0.066516,0.136752,9.742647
8.55,-0.098322,0.357104,9.801954
8.56,-0.059545,-0.018940,9.696113
8.57,-0.048755,0.018421,9.960440
8.58,-0.331883,-0.023692,9.995481
8.59,-0.019036,0.065643,9.974565
8.60,-0.216327,0.080726,9.723161
8.61,-0.270902,0.023195,9.645689
8.62,-0.104061,0.154583,9.956920
8.63,-0.086083,-0.055235,9.853221
8.64,-0.178375,0.131685,9.822010
8.65,0.005688,0.072480,9.686238
8.66,-0.253865,0.000917,9.833483
8.67,-0.140295,-0.040936,9.620898
8.68,-0.160195,0.282559,9.860558
8.69,-0.094041,-0.112161,9.963791
8.70,-0.053323,0.016183,9.998056
8.71,-0.205965,-0.115003,9.867870
8.72,0.003766,0.183942,9.574167
8.73,-0.073619,0.070795,9.794254
8.74,-0.306147,-0.122242,10.065167
8.75,-0.311983,0.015540,9.642995
8.76,-0.076178,-0.020082,9.755311
8.77,-0.098875,-0.117927,9.960491
8.78,-0.082341,0.030239,9.848003
8.79,-0.070777,-0.018706,10.107840
8.80,-0.037760,-0.044082,9.657036
8.81,0.051560,-0.079393,9.620098
8.82,-0.192746,-0.026876,9.929074
8.83,-0.197236,-0.055151,9.589313
8.84,-0.184916,-0.079487,9.728235
8.85,-0.016101,-0.167219,9.745645
8.86,0.101630,0.109426,9.898934
8.87,-0.096461,-0.223208,9.838961
8.88,-0.341786,-0.048968,9.816027
8.89,-0.242895,-0.141630,9.694780
8.90,-0.135167,0.105246,9.920310
8.91,-0.098875,-0.216794,10.312922
8.92,-0.077661,-0.198856,9.845191
8.93,-0.020698,-0.229019,9.761479
8.94,-0.059379,-0.075603,9.564945
8.95,0.107335,-0.280723,9.656527
8.96,-0.096302,-0.174675,9.714993
8.97,-0.115234,-0.376583,9.669214
8.98,0.049147,-0.090247,9.740961
8.99,-0.189147,-0.179672,9.991296
9.00,0.045347,-0.298509,9.916149
9.01,0.014346,0.010286,9.718489
9.02,-0.012200,-0.276699,9.570755
9.03,0.199533,-0.023685,9.926343
9.04,-0.062290,-0.202732,9.731451
9.05,0.263032,0.074542,9.495825
9.06,-0.007853,-0.026493,9.836500
9.07,-0.130664,-0.235952,9.879591
9.08,0.034321,-0.223341,9.395612
9.09,-0.099898,-0.038695,9.619055
9.10,-0.057672,-0.140676,9.718292
9.11,0.083430,-0.127115,9.835860
9.12,0.105661,0.048497,9.660107
9.13,-0.032511,-0.191174,9.615105
9.14,0.163746,-0.087322,9.832711
9.15,0.187212,0.019539,9.664655
9.16,0.223664,0.005538,9.805431
9.17,0.117772,-0.107057,9.573265
9.18,0.220724,-0.118734,9.538895
9.19,-0.165781,-0.288708,9.833313
9.20,0.024496,-0.202617,9.762293
9.21,-0.038740,-0.033321,9.855460
9.22,0.082186,-0.083577,9.651139
9.23,0.001801,-0.053406,9.613784
9.24,0.052849,0.067079,9.915008
9.25,0.300974,-0.195224,9.510712
9.26,0.056983,-0.076089,9.898560
9.27,0.129148,-0.020004,9.907667
9.28,0.053670,-0.121961,9.842661
9.29,0.092579,0.139582,9.625419
9.30,0.086067,0.082170,9.606873
9.31,0.140893,0.013346,9.691264
9.32,0.228577,0.199274,9.538864
9.33,0.287967,-0.190432,9.585041
9.34,0.128866,-0.006000,9.809462
9.35,0.163780,0.044391,9.809640
9.36,-0.043858,-0.103815,9.571334
9.37,0.084800,0.047507,9.812487
9.38,0.209164,-0.115904,9.781000
9.39,0.201116,0.105183,9.928360
9.40,0.123347,0.154639,9.796246
9.41,0.204958,0.065703,9.864371
9.42,0.158002,-0.184058,9.782576
9.43,0.243547,-0.072563,9.852602
9.44,0.134516,0.116301,9.534854
9.45,0.057272,0.056060,9.697658
9.46,0.140300,-0.264896,9.708908
9.47,-0.251748,0.212270,9.679916
9.48,0.145674,0.084142,9.775873
9.49,-0.338396,-0.026076,9.802242
9.50,-0.107835,0.195926,9.768058
9.51,0.152641,-0.000616,9.688094
9.52,0.155064,0.002063,9.609602
9.53,-0.042516,0.131489,9.865960
9.54,0.010621,0.305835,9.761079
9.55,0.259523,0.290370,9.569285
9.56,0.035845,0.141934,9.684562
9.57,0.361837,0.157276,9.467416
9.58,0.091104,0.199576,9.716243
9.59,0.138837,-0.043655,9.683343
9.60,0.282329,0.186842,9.630528
9.61,0.102353,0.023587,9.932648
9.62,-0.035429,0.151789,9.548806
9.63,0.069806,0.087933,9.809438
9.64,0.076722,0.176789,10.016571
9.65,-0.084849,0.131986,9.861151
9.66,0.046052,-0.250029,9.705832
9.67,-0.014572,0.140874,9.551405
9.68,0.183064,0.196886,9.519425
9.69,0.073859,0.173508,9.652449
9.70,0.033251,0.107602,9.613851
9.71,0.051846,0.316636,9.609273
9.72,0.088686,0.156354,9.664316
9.73,0.133179,0.170672,9.695689
9.74,-0.063625,0.242404,9.777950
9.75,-0.071539,0.159244,9.536758
9.76,0.183061,0.006395,9.614577
9.77,-0.001993,-0.180260,9.687792
9.78,-0.125602,0.053034,9.682845
9.79,0.094554,0.199318,9.967393
9.80,0.093730,0.063121,9.742901
9.81,-0.148777,0.198901,9.484590
9.82,0.059188,0.117657,9.769156
9.83,0.116623,0.251218,9.787135
9.84,0.069950,0.057861,9.693368
9.85,0.097501,0.145842,9.541167
9.86,-0.150235,0.146687,9.957339
9.87,0.054594,0.262244,9.561610
9.88,-0.024870,-0.126846,9.804096
9.89,-0.049930,0.018677,9.739802
9.90,0.109023,0.171087,9.796128
9.91,0.178615,0.250207,9.951207
9.92,0.212971,0.088806,9.791121
9.93,0.151970,0.020045,9.634535
9.94,-0.022420,0.141079,9.867857
9.95,0.029639,0.149420,9.624946
9.96,0.075912,-0.003129,9.736492
9.97,-0.004966,0.074438,9.532869
9.98,-0.007192,0.171163,9.569560
9.99,0.072617,0.250990,9.721745
10.00,-0.036666,0.107833,9.766426
10.01,-0.120350,0.018564,9.476915
10.02,-0.085816,0.001298,9.785238
10.03,0.036789,0.069180,9.601277
10.04,-0.042074,-0.017085,9.895545
10.05,-0.004712,0.014068,9.667518
10.06,0.031824,-0.141090,9.559901
10.07,-0.096557,0.136092,9.728249
10.08,0.036246,-0.161719,9.589803
10.09,-0.011904,-0.081995,9.896179
10.10,-0.208331,-0.023540,9.719064
10.11,0.110216,0.198745,9.698229
10.12,-0.125564,-0.095555,9.802803
10.13,-0.266584,-0.129051,9.579758
10.14,-0.195719,-0.119014,9.540483
10.15,-0.194951,0.143074,9.778668
10.16,-0.067919,-0.395571,9.568114
10.17,-0.108219,-0.179166,9.568703
10.18,-0.116010,0.269999,9.840627
10.19,0.000078,0.016686,9.798066
10.20,-0.029736,-0.180167,9.550724
10.21,-0.024989,-0.041514,9.642546
10.22,-0.000299,-0.012084,9.608113
10.23,0.046466,0.104323,9.993259
10.24,-0.246246,0.254631,9.889359
10.25,0.013816,0.121331,9.735028
10.26,-0.131297,0.062060,9.927647
10.27,0.235134,0.286252,9.743003
10.28,0.364145,0.187129,9.971884
10.29,0.662370,0.241129,10.278129
10.30,0.893041,0.263659,10.605925
10.31,1.030135,0.411978,10.905041
10.32,1.239096,0.631278,11.434942
10.33,1.680609,0.748631,11.995543
10.34,1.899313,1.087688,12.631044
10.35,2.302625,1.071332,13.331887
10.36,2.740879,1.003378,14.032123
10.37,2.833560,1.415433,14.779750
10.38,3.213033,1.633062,15.332631
10.39,3.334688,1.749065,15.646152
10.40,3.186046,2.113658,15.572966
10.41,3.371036,1.940092,15.480100
10.42,3.201717,2.170958,15.334098
10.43,2.915027,2.081301,14.958019
10.44,2.534131,2.062839,14.119412
10.45,2.203513,1.918801,13.323555
10.46,1.902725,1.932242,12.694759
10.47,1.692833,1.740522,11.836392
10.48,1.190539,1.723314,11.596007
10.49,1.065114,1.528163,10.958906
10.50,0.609052,1.285623,10.464545
10.51,0.520675,1.355161,10.257311
10.52,0.386825,1.124661,10.011040
10.53,0.533887,0.861958,10.136827
10.54,-0.024598,0.784435,9.840540
10.55,0.245217,0.620165,9.839120
10.56,0.036377,0.403409,9.867807
10.57,0.034205,0.408434,9.667376
10.58,-0.022309,0.233342,9.789802
10.59,0.004037,0.117377,9.797229
10.60,-0.074778,-0.026991,9.539802
10.61,0.114970,0.074433,9.792575
10.62,-0.115031,0.146451,9.751237
10.63,0.076395,-0.034376,9.776581
10.64,-0.135091,0.330075,9.764252
10.65,-0.062733,0.119040,9.796488
10.66,-0.181537,0.159680,9.948401
10.67,0.004511,0.093082,9.597027
10.68,0.126268,0.217615,9.715251
10.69,-0.053391,-0.099210,9.857481
10.70,-0.064624,-0.310382,9.832491
10.71,-0.171583,-0.053720,9.830492
10.72,-0.062127,0.070575,10.152696
10.73,-0.222486,0.026134,9.854199
10.74,-0.137597,0.045760,9.927581
10.75,0.002496,0.176208,9.727295
10.76,0.136925,0.068681,9.632318
10.77,0.319137,0.123904,9.728367
10.78,-0.084949,-0.079499,9.873096
10.79,0.161104,-0.093010,9.831432
10.80,0.021559,0.237266,9.831991
10.81,-0.022392,0.060740,9.746591
10.82,0.051124,-0.021189,9.725335
10.83,0.010098,-0.016109,9.753560
10.84,0.019368,-0.014696,9.881243
10.85,-0.039435,-0.017268,9.898598
10.86,-0.154775,-0.081703,9.641106
10.87,-0.168819,-0.103460,9.889796
10.88,0.098204,0.057345,9.693058
10.89,-0.010014,0.013579,9.850902
10.90,-0.044994,0.221397,9.759475
10.91,0.030873,0.127328,10.006661
10.92,0.128524,0.127423,9.730023
10.93,0.058016,0.009637,9.814665
10.94,-0.039158,0.087306,9.875691
10.95,0.189873,0.147953,9.669525
10.96,0.235319,0.193161,9.782793
10.97,0.108207,0.098308,9.756786
10.98,0.168685,0.241198,9.723292
10.99,0.203804,0.114555,9.734784
11.00,0.193239,0.210392,9.953149
11.01,0.134108,0.057879,9.714792
11.02,0.134935,-0.099683,9.879011
11.03,0.128135,0.150949,9.844883
11.04,-0.063342,0.206453,9.606389
11.05,0.154907,0.188873,9.875778
11.06,-0.089481,0.170659,9.606331
11.07,-0.019825,0.078079,9.893285
11.08,0.234174,0.022761,9.735475
11.09,0.180699,0.185187,9.808784
11.10,0.260392,0.169312,9.627544
11.11,0.051236,0.049741,9.827008
11.12,-0.052599,0.248844,9.940778
11.13,0.058549,0.008190,9.699161
11.14,0.101272,0.042292,9.728263
11.15,0.100027,0.306630,9.878044
11.16,0.228002,0.212201,9.882673
11.17,0.049911,0.062496,9.475870
11.18,0.136698,0.137206,10.099940
11.19,-0.023103,0.118343,9.892908
11.20,0.150535,-0.232868,9.917605
11.21,0.097718,-0.015537,9.801065
11.22,0.008100,0.083577,9.562534
11.23,0.070394,0.043135,9.917867
11.24,0.077090,0.111649,9.745399
11.25,0.067152,0.213431,9.901794
11.26,0.312392,0.035042,9.796127
11.27,0.088159,-0.057715,9.861199
11.28,0.070726,0.103618,9.720485
11.29,-0.151798,0.020737,9.951109
11.30,-0.007625,0.036375,9.664828
11.31,0.067775,0.015144,10.146684
11.32,0.016587,0.314126,10.146718
11.33,0.264121,-0.228925,10.063082
11.34,0.077834,-0.011871,10.014166
11.35,0.251433,0.028983,9.824853
11.36,0.103302,-0.069676,10.001095
11.37,0.099328,0.126624,9.825398
11.38,0.083055,0.110781,9.622452
11.39,0.092904,0.001977,10.051469
11.40,0.297332,-0.030272,10.000130
11.41,-0.188758,-0.016730,9.838776
11.42,-0.152178,-0.021366,9.672702
11.43,0.021134,-0.023674,9.763221
11.44,0.086261,-0.042278,9.591384
11.45,0.165433,0.005170,9.979707
11.46,0.137396,0.059907,9.623979
11.47,0.032424,-0.183399,9.889640
11.48,0.198632,-0.167062,9.732403
11.49,0.197694,-0.255932,9.651813
11.50,0.093792,0.052826,9.885948
11.51,0.184773,-0.026026,9.806867
11.52,0.099437,-0.000239,9.971960
11.53,-0.003271,-0.237088,9.678158
11.54,0.145155,0.144105,9.750602
11.55,0.071927,-0.147543,9.523354
11.56,0.055981,-0.058532,9.552807
11.57,0.229674,0.019740,10.111347
11.58,-0.244148,-0.205120,10.152283
11.59,-0.123188,-0.155955,9.874533
11.60,-0.098594,-0.072418,9.747181
11.61,-0.002868,0.245653,9.821694
11.62,0.006991,-0.064228,9.986729
11.63,-0.146560,0.089494,9.793360
11.64,-0.087166,0.038725,9.899581
11.65,-0.075551,-0.064252,9.865457
11.66,0.319306,-0.229337,9.788533
11.67,0.237259,0.014566,9.795416
11.68,-0.031749,-0.294084,9.911057
11.69,-0.029377,0.076372,9.734128
11.70,-0.127072,-0.092839,9.935028
11.71,-0.221569,-0.435613,9.806651
11.72,-0.010034,-0.158769,9.891381
11.73,-0.119133,-0.039239,10.068175
11.74,-0.012880,-0.145307,9.851740
11.75,-0.197881,-0.029371,10.004926
11.76,-0.100174,-0.214376,9.626150
11.77,0.006716,-0.264831,9.812113
11.78,0.031312,-0.110491,9.882889
11.79,0.037411,-0.089389,10.149609
11.80,-0.168810,-0.122925,9.607884
11.81,0.098316,0.082479,9.871987
11.82,-0.088407,-0.145098,10.094996
11.83,0.103929,0.022939,9.791268
11.84,0.059182,0.030120,9.889470
11.85,-0.055638,-0.118500,9.997272
11.86,0.142531,-0.032307,10.029806
11.87,0.322905,0.197917,10.309165
11.88,0.484562,0.518881,10.286002
11.89,0.564287,0.450371,10.606549
11.90,0.976579,0.288979,10.649457
11.91,1.166836,0.253176,10.972270
11.92,1.306317,0.858837,11.525869
11.93,1.748179,0.915750,11.979523
11.94,2.228248,1.229613,12.878810
11.95,2.569295,1.157278,13.476430
11.96,2.504106,1.475389,14.154767
11.97,2.815875,1.699920,14.974000
11.98,3.318720,1.698476,15.271777
11.99,3.148167,1.837753,15.882884
12.00,3.161234,2.006048,15.827466
12.01,3.212677,2.154926,15.938499
12.02,3.182681,2.143841,15.379338
12.03,2.902370,2.284830,14.996290
12.04,2.556886,2.100733,14.278803
12.05,2.232528,1.951584,13.640656
12.06,1.886042,2.271978,12.833778
12.07,1.523916,1.858523,11.917397
12.08,1.578202,1.736536,11.708384
12.09,1.044963,1.653332,11.074557
12.10,0.858584,1.514414,10.822484
12.11,0.478052,1.299536,10.530593
12.12,0.340408,1.183354,10.129453
12.13,0.141392,1.024926,9.977585
12.14,-0.193472,0.903651,10.112622
12.15,-0.115206,0.464505,9.926466
12.16,-0.219751,0.851640,10.069654
12.17,-0.308409,0.501702,9.896700
12.18,-0.205652,0.497675,10.056002
12.19,0.081598,0.186017,9.967570
12.20,-0.092070,0.232070,9.946628
12.21,0.062651,0.157611,9.853194
12.22,-0.045896,0.375326,9.937943
12.23,-0.002744,0.098697,10.072526
12.24,-0.205226,0.237786,9.898177
12.25,-0.034106,0.052898,9.980416
12.26,-0.009010,0.065752,9.912837
12.27,-0.164869,0.083562,9.924083
12.28,-0.027553,0.262934,10.148199
12.29,-0.025629,-0.119962,10.075435
12.30,-0.158262,-0.051630,9.918569
12.31,-0.225673,-0.126995,9.937724
12.32,-0.231549,-0.022747,9.809673
12.33,-0.077476,0.011803,9.883941
12.34,-0.046914,-0.082924,9.951683
12.35,-0.179453,0.024371,10.027650
12.36,-0.079253,-0.127701,10.013640
12.37,-0.011974,-0.006624,9.753625
12.38,-0.004155,0.260883,10.045858
12.39,0.110082,0.166361,9.896799
12.40,0.079379,0.141303,9.771182
12.41,-0.191640,-0.000884,10.096576
12.42,0.133004,-0.064479,10.114450
12.43,-0.130203,-0.016693,9.946611
12.44,0.061520,0.114726,10.009001
12.45,-0.053010,0.223748,10.017283
12.46,-0.107856,0.227255,10.105306
12.47,-0.272482,0.193799,10.011872
12.48,-0.073241,0.028526,9.724098
12.49,-0.236810,0.118639,10.191367
12.50,0.069420,0.075549,10.059192
12.51,0.138443,0.088145,9.838660
12.52,-0.136066,0.354684,9.765827
12.53,-0.001016,-0.103502,9.980616
12.54,-0.121071,0.077259,9.870941
12.55,-0.106173,0.248091,9.956040
12.56,0.065491,-0.076181,10.013847
12.57,-0.028734,0.019311,9.830385
12.58,0.188016,0.029708,9.753336
12.59,-0.075218,0.062833,9.963497
12.60,0.105984,-0.105640,9.834687
12.61,0.001182,0.153376,9.929681
12.62,0.088428,0.157790,9.721015
12.63,-0.057273,0.134571,9.873616
12.64,-0.006106,-0.035303,10.008842
12.65,-0.010564,0.074954,9.993395
12.66,-0.093580,-0.048066,9.797997
12.67,0.089640,0.015124,9.744600
12.68,0.091651,0.308504,9.910142
12.69,0.088263,0.056519,9.986245
12.70,0.204866,-0.102615,9.964177
12.71,0.197722,0.056297,9.835490
12.72,-0.017851,-0.132863,9.948616
12.73,0.075217,-0.119894,10.116966
12.74,-0.041108,-0.106364,9.935059
12.75,0.039759,-0.040202,9.677389
12.76,-0.031825,0.120069,9.934156
12.77,0.237694,0.071541,10.191528
12.78,0.090018,0.059389,9.724793
12.79,0.023244,-0.140738,9.908831
12.80,0.195616,-0.079302,9.872612
12.81,-0.205180,0.012848,9.917340
12.82,-0.183553,-0.100596,9.930717
12.83,0.156417,-0.063955,10.062712
12.84,0.070876,0.017123,9.914567
12.85,0.096301,-0.082906,10.081084
12.86,-0.090372,-0.019053,9.885354
12.87,0.068474,0.139918,9.852352
12.88,0.314065,-0.076755,9.807221
12.89,0.174841,0.080585,9.646037
12.90,0.098505,0.001513,9.938550
12.91,0.027563,-0.246219,10.187000
12.92,0.034914,-0.206796,9.963082
12.93,-0.171326,-0.178805,9.994551
12.94,0.116910,-0.185421,9.840047
12.95,0.189163,-0.097570,9.863120
12.96,-0.099762,-0.016689,10.034619
12.97,0.011443,0.056652,10.177419
12.98,-0.046690,-0.060309,10.103936
12.99,-0.022354,-0.153890,10.007768
13.00,0.101076,-0.353185,9.899354
13.01,-0.154412,-0.097535,9.923182
13.02,0.170372,-0.105381,9.787708
13.03,0.187950,-0.088761,9.689823
13.04,0.068066,0.140031,9.734171
13.05,-0.198892,0.034384,9.898241
13.06,-0.020301,-0.021808,9.849726
13.07,0.247575,-0.232749,9.684209
13.08,-0.233494,-0.179896,9.884021
13.09,0.058282,-0.130507,9.843971
13.10,-0.041615,-0.212712,9.723647
13.11,0.196414,-0.059893,9.835306
13.12,0.018614,-0.077154,9.841473
13.13,0.147744,-0.250362,9.799343
13.14,0.166649,0.024324,10.014662
13.15,0.318547,-0.106296,9.617768
13.16,0.073135,-0.325091,9.605399
13.17,0.141786,-0.122545,9.883098
13.18,-0.082489,-0.081176,9.895314
13.19,0.237510,0.003519,9.937655
13.20,0.002228,-0.151771,9.804809
13.21,0.024917,-0.009744,9.750946
13.22,0.088146,-0.084233,9.877613
13.23,-0.098232,-0.261866,9.815990
13.24,0.115160,-0.271030,10.094125
13.25,0.202091,0.036560,9.830739
13.26,0.119333,0.048640,9.867833
13.27,-0.108402,-0.052661,10.220976
13.28,0.065395,0.091736,9.846282
13.29,0.167186,0.042890,9.950533
13.30,-0.149419,0.002155,9.962269
13.31,-0.055325,-0.185047,9.973289
13.32,0.176451,0.136433,9.910520
13.33,0.101211,-0.002479,9.896221
13.34,0.115687,-0.108489,9.882214
13.35,0.286763,-0.137598,9.786604
13.36,0.117146,-0.021678,9.911885
13.37,0.137091,-0.247979,10.149384
13.38,0.380589,0.041676,10.033924
13.39,0.026734,-0.151412,9.906025
13.40,-0.046322,0.012940,9.982334
13.41,0.097742,-0.088497,9.739867
13.42,0.096032,-0.051770,9.824109
13.43,-0.022921,-0.104695,9.992302
13.44,-0.086643,-0.026604,10.066827
13.45,0.311487,0.226692,9.749725
13.46,0.070817,0.174259,9.788984
13.47,-0.058537,0.059884,10.161168
13.48,0.137809,0.025277,9.868465
13.49,0.014775,0.142854,10.109756
13.50,-0.000161,0.193417,9.883551
13.51,0.103691,-0.021513,9.890408
13.52,-0.107061,0.094116,9.816955
13.53,0.110481,-0.083482,9.999974
13.54,0.329978,0.309527,10.074387
13.55,0.205172,0.471576,9.769150
13.56,0.174722,0.293402,9.916048
13.57,0.257244,0.101319,10.177684
13.58,0.400396,0.515717,10.162900
13.59,0.588912,0.435222,10.307619
13.60,0.785115,0.580306,10.795442
13.61,1.193038,0.866130,11.182897
13.62,1.165691,0.966231,11.445218
13.63,1.797537,1.033497,12.120461
13.64,1.985892,1.179098,12.589105
13.65,2.413818,1.441723,13.350507
13.66,2.550020,1.546810,14.209876
13.67,3.119493,1.626435,14.850522
13.68,3.322170,1.871672,15.236741
13.69,3.421603,2.086951,15.613260
13.70,3.168549,2.136538,15.682094
13.71,3.399950,2.072329,15.774995
13.72,3.209290,2.413325,15.092214
13.73,2.749462,1.984987,14.697874
13.74,2.658427,2.244608,13.922842
13.75,2.382487,2.174586,13.523490
13.76,2.062451,2.186263,12.492656
13.77,1.673789,2.127660,12.079714
13.78,1.361247,2.064312,11.720041
13.79,1.206796,1.694998,11.242834
13.80,0.918780,1.690657,10.379221
13.81,0.210938,1.477770,10.394217
13.82,0.341611,1.082584,10.016136
13.83,0.222958,1.354258,9.853901
13.84,-0.071122,0.800287,9.918687
13.85,0.074535,0.881591,10.053012
13.86,0.159118,0.749982,9.933075
13.87,-0.158427,0.622947,9.730549
13.88,-0.012806,0.432240,9.918913
13.89,-0.179633,0.507207,9.500146
13.90,-0.161084,0.150735,9.705344
13.91,0.089965,0.272516,9.693154
13.92,-0.156820,0.166069,9.817822
13.93,-0.039083,0.115069,9.777109
13.94,-0.320962,0.218134,9.784476
13.95,0.125798,0.272590,9.778656
13.96,-0.026238,0.083670,9.805111
13.97,-0.121070,0.203944,9.876461
13.98,-0.030524,0.104522,9.820621
13.99,-0.269031,-0.018160,9.758781
14.00,0.041926,0.049948,9.853712
14.01,-0.138852,0.037955,9.912003
14.02,-0.124335,-0.016007,9.717382
14.03,-0.158597,0.113164,9.785792
14.04,-0.168909,0.084333,9.955660
14.05,-0.015384,-0.140120,9.637493
14.06,-0.067431,-0.152773,10.043427
14.07,-0.019208,0.091042,9.602178
14.08,-0.097635,-0.063096,9.740203
14.09,-0.034042,0.065613,9.654424
14.10,-0.144820,0.117675,10.092660
14.11,0.174190,-0.133990,9.714784
14.12,-0.280237,-0.156329,9.714041
14.13,0.060629,0.208497,9.731163
14.14,0.074976,0.044251,9.795365
14.15,-0.189815,-0.053752,9.734915
14.16,0.181678,-0.121013,9.761212
14.17,0.035448,-0.075672,9.284651
14.18,0.034450,-0.162735,9.785670
14.19,-0.076701,0.080738,9.779092
14.20,-0.104013,-0.123834,9.920935
14.21,-0.100864,0.095313,9.957745
14.22,-0.026570,-0.089199,9.747142
14.23,0.097098,-0.171452,9.886643
14.24,-0.046813,-0.102434,9.617106
14.25,-0.175388,-0.371099,9.877713
14.26,0.035551,-0.075493,9.689103
14.27,0.049868,-0.086089,9.602362
14.28,0.020672,0.028758,9.741212
14.29,0.034425,-0.300956,9.962242
14.30,-0.084629,0.060594,9.790502
14.31,-0.160617,0.015576,9.973662
14.32,-0.150283,0.063458,9.658329
14.33,-0.239261,-0.096822,9.908854
14.34,-0.011427,0.027654,9.669863
14.35,-0.046682,-0.273884,9.791728
14.36,-0.086231,-0.014884,9.789540
14.37,-0.384830,-0.195894,9.850842
14.38,-0.176522,-0.304210,9.792373
14.39,0.111001,-0.243402,9.652825
14.40,-0.099882,-0.110077,9.878604
14.41,0.026540,-0.211660,9.996849
14.42,-0.180197,-0.069381,9.671748
14.43,0.162763,-0.333023,9.495618
14.44,-0.023721,-0.372567,9.821534
14.45,0.031819,0.046337,9.704349
14.46,0.279563,-0.010678,9.731453
14.47,0.185897,-0.245584,9.826773
14.48,-0.029414,-0.120311,9.684122
14.49,-0.060371,0.002359,9.709494
14.50,-0.024822,-0.069456,9.732241
14.51,0.078843,-0.101499,9.951156
14.52,0.008418,0.012857,9.748741
14.53,-0.023019,-0.205273,9.570686
14.54,0.203808,-0.112624,9.575415
14.55,0.017344,-0.117041,9.761497
14.56,0.310265,-0.145923,9.583060
14.57,0.048429,-0.158022,9.521641
14.58,0.254958,-0.100321,9.828531
14.59,0.086729,-0.102527,9.834588
14.60,0.162485,-0.229833,9.686430
14.61,-0.037001,-0.004954,9.778302
14.62,-0.049535,-0.215270,9.762756
14.63,0.110981,-0.121020,9.819996
14.64,0.177276,-0.126795,9.819571
14.65,0.066244,-0.044725,9.369353
14.66,-0.090264,-0.338142,9.699762
14.67,-0.096514,0.027084,9.805216
14.68,-0.102006,-0.156872,9.674532
14.69,-0.140413,0.075113,9.736362
14.70,0.087205,-0.124161,9.835699
14.71,0.211350,-0.068001,9.741248
14.72,0.076920,0.172287,9.940355
14.73,-0.190627,-0.085755,9.886362
14.74,0.059727,0.101191,9.711334
14.75,0.064980,-0.037682,9.699565
14.76,0.337832,0.012675,9.327616
14.77,-0.086851,-0.023509,9.680331
14.78,0.042712,0.075175,9.535975
14.79,0.295777,-0.103437,9.755807
14.80,0.146445,-0.133821,9.745649
14.81,0.161307,-0.086893,9.821091
14.82,0.108609,0.007194,9.918640
14.83,0.135489,-0.025767,9.718874
14.84,0.190132,0.091466,10.041267
14.85,0.000487,0.168289,9.754020
14.86,0.203683,-0.099916,9.537526
14.87,-0.065872,-0.065462,9.641757
14.88,0.138747,-0.144357,9.667765
14.89,0.121128,0.276957,9.802362
14.90,0.025941,0.075124,9.586374
14.91,0.097272,0.101310,9.676810
14.92,0.025267,-0.112014,9.695530
14.93,-0.028773,0.053646,9.654899
14.94,0.057137,0.119758,9.830807
14.95,-0.033287,0.033056,9.806578
14.96,0.137430,0.197076,9.879709
14.97,-0.039931,0.349874,9.669654
14.98,0.182784,-0.036884,9.883971
14.99,-0.045280,-0.041738,9.524290
15.00,0.027578,-0.020440,9.520521
15.01,0.019503,0.281434,9.544619
15.02,0.252282,0.217386,9.715509
15.03,0.131597,0.079459,9.882234
15.04,0.065142,0.103327,9.629294
15.05,0.148877,0.003964,9.646563
15.06,-0.165459,0.211547,9.682775
15.07,0.080497,0.061730,9.792944
15.08,0.323541,0.078458,9.645624
15.09,0.097788,0.184840,9.637568
15.10,0.088025,0.091109,9.523659
15.11,0.143524,0.087117,9.631754
15.12,0.183002,0.117983,9.876433
15.13,-0.166476,0.213313,9.724123
15.14,-0.131056,0.316357,9.607632
15.15,0.093577,0.189695,9.884103
15.16,-0.020007,0.216241,9.628956
15.17,0.220580,0.096016,9.909536
15.18,0.022599,0.034965,9.907116
15.19,-0.174513,0.198029,9.718334
15.20,-0.097389,0.139499,9.500590
15.21,-0.278112,-0.052617,10.030824
15.22,0.020769,0.077630,9.764432
15.23,0.023214,0.105705,9.664802
15.24,-0.008214,0.052809,9.843949
15.25,0.169038,0.290043,9.808372
15.26,0.180198,0.167750,9.893552
15.27,0.012689,0.272653,9.617275
15.28,-0.226307,0.136960,9.754587
15.29,0.100615,0.112370,9.543988
15.30,0.089837,-0.012750,9.803318
15.31,0.056946,0.097903,9.706854
15.32,0.134198,0.094664,9.749455
15.33,-0.126776,-0.074526,9.689685
15.34,0.250620,0.021027,9.675109
15.35,-0.109007,0.043038,9.588781
15.36,0.092579,0.127339,9.821092
15.37,-0.203265,0.128809,9.919102
15.38,-0.115869,-0.000739,9.632734
15.39,0.174277,0.120710,9.788300
15.40,-0.042435,0.037888,9.771460
15.41,0.086236,-0.289451,9.712250
15.42,0.010471,-0.008209,9.497567
15.43,-0.033947,0.174383,9.529255
15.44,0.138947,-0.162055,9.602341
15.45,-0.056447,0.048063,9.412430
15.46,-0.245036,0.219488,9.909240
15.47,-0.130998,-0.067346,9.763832
15.48,0.028315,0.018833,9.708409
15.49,0.006460,-0.143253,9.406234
15.50,-0.232167,0.203194,9.457800
15.51,-0.134099,-0.007279,9.713102
15.52,-0.119968,0.003282,9.989598
15.53,-0.096902,0.155443,9.616234
15.54,-0.220902,0.067966,9.835305
15.55,-0.133731,-0.120204,9.647538
15.56,-0.147953,-0.095623,9.722844
15.57,0.030431,0.039884,9.885620
15.58,0.034237,-0.094212,9.667727
15.59,-0.079537,-0.270824,9.620442
15.60,-0.105821,-0.017425,9.917110
15.61,-0.034894,-0.178824,9.727745
15.62,-0.136765,0.207857,9.879369
15.63,-0.154930,0.056810,9.640427
15.64,-0.096512,-0.043267,9.951065
15.65,-0.009587,0.020923,9.823693
15.66,-0.000823,-0.071312,9.899116
15.67,0.258134,0.086915,9.942391
15.68,0.459552,0.418336,9.986212
15.69,0.353135,0.656759,10.253966
15.70,0.759609,0.584137,10.471235
15.71,0.984860,0.609130,11.043440
15.72,1.344944,0.705614,11.362044
15.73,1.625030,0.791963,11.765152
15.74,1.791788,1.312190,12.408750
15.75,2.154221,1.205641,13.121369
15.76,2.628345,1.645608,14.167917
15.77,3.025571,1.717099,14.575510
15.78,2.851625,1.488005,15.306412
15.79,3.295213,1.747047,15.626628
15.80,3.443051,1.854286,15.717881
15.81,3.234831,2.005400,15.670144
15.82,3.182290,2.057280,15.289082
15.83,2.816157,2.440405,14.361136
15.84,2.608371,1.933938,14.041130
15.85,2.108553,2.039836,13.428919
15.86,1.681731,2.004626,12.881061
15.87,1.736030,1.821549,12.219575
15.88,1.181565,1.703615,11.209695
15.89,0.951881,1.416721,10.871459
15.90,0.585010,1.395476,10.326511
15.91,0.368683,1.279388,10.480806
15.92,0.344927,1.092846,10.213847
15.93,0.144457,0.962491,9.989362
15.94,0.176995,0.913124,9.879060
15.95,0.113274,0.717638,9.997477
15.96,0.046738,0.489448,9.943760
15.97,0.002796,0.231188,9.919770
15.98,0.141592,0.206198,9.813052
15.99,-0.189186,0.173321,9.696224
16.00,-0.075174,0.165569,9.850956
16.01,0.063674,0.026319,9.857506
16.02,0.078287,-0.068842,9.716897
16.03,-0.243744,-0.129718,9.695035
16.04,-0.109348,-0.207742,9.903635
16.05,0.092951,-0.053622,9.978773
16.06,-0.006858,-0.212298,9.641738
16.07,-0.041974,-0.162342,9.710655
16.08,-0.088952,-0.092677,9.797543
16.09,-0.106197,-0.206421,9.817431
16.10,-0.022775,0.000560,9.677078
16.11,-0.084789,0.046238,10.014813
16.12,-0.056688,-0.105145,9.811131
16.13,-0.039157,-0.087602,9.827357
16.14,-0.126909,0.033867,10.000139
16.15,0.021418,-0.111435,9.691967
16.16,0.310426,-0.114583,9.743402
16.17,-0.249322,0.128183,9.581271
16.18,0.006042,0.096067,9.733568
16.19,-0.120779,0.067578,9.550214
16.20,0.043050,0.111934,9.864337
16.21,-0.017301,-0.230937,9.819417
16.22,0.071911,0.174272,9.722815
16.23,0.124950,0.064315,9.748538
16.24,0.010399,0.143984,9.870201
16.25,0.126590,0.074527,9.605589
16.26,-0.287127,0.039257,9.794195
16.27,0.188496,0.005598,9.864559
16.28,0.046105,0.087861,9.518131
16.29,0.133893,0.011470,9.864568
16.30,-0.138385,0.157999,9.535341
16.31,-0.088253,-0.131661,9.754284
16.32,0.032378,-0.001539,9.608915
16.33,0.016228,0.313433,9.973212
16.34,0.055627,-0.002616,9.611893
16.35,0.155161,0.048180,9.543920
16.36,-0.183477,-0.024942,9.794677
16.37,0.148504,0.125245,9.719155
16.38,0.035898,0.000389,9.567499
16.39,0.013667,0.070078,9.852832
16.40,-0.135241,0.197631,9.501486
16.41,0.104780,0.015130,9.636304
16.42,-0.242209,0.196622,9.701933
16.43,0.128303,0.203448,9.895863
16.44,-0.125605,0.233947,9.966010
16.45,0.062751,0.126563,9.940130
16.46,0.044857,0.500764,9.765380
16.47,0.202252,0.240237,9.448117
16.48,0.043145,0.154319,9.843764
16.49,-0.016113,0.011621,9.996032
16.50,0.008910,0.106237,9.963993
16.51,0.224884,0.289948,9.857187
16.52,0.138844,0.324588,9.626958
16.53,0.030473,0.297247,9.721062
16.54,0.050544,0.214222,10.066457
16.55,-0.107069,-0.030781,9.598501
16.56,0.129588,0.178004,9.637268
16.57,-0.126328,-0.030028,9.931046
16.58,0.176843,-0.060411,9.739852
16.59,0.103737,0.145681,9.635894
16.60,0.376305,0.178417,10.016383
16.61,-0.040684,0.222445,9.868143
16.62,0.080365,0.171864,9.751272
16.63,0.309721,0.173930,9.645446
16.64,0.238023,-0.010319,10.093621
16.65,0.012527,0.092715,9.804692
16.66,0.123850,-0.078290,10.004872
16.67,0.097999,-0.140804,9.935486
16.68,0.132263,0.185304,9.738582
16.69,0.015138,0.002675,9.740827
16.70,0.088695,0.194179,10.016253
16.71,-0.092039,0.218721,10.019651
16.72,0.116138,0.007463,9.553260
16.73,0.154001,0.148509,9.894126
16.74,0.072665,-0.005936,9.801314
16.75,-0.094013,-0.152521,9.674746
16.76,0.218135,0.079229,9.857181
16.77,0.142854,0.003254,9.632717
16.78,0.011472,0.002177,9.757479
16.79,0.064288,0.287187,9.712117
16.80,-0.082867,-0.137833,9.755052
16.81,-0.026690,0.086357,9.816133
16.82,0.030872,-0.083729,9.685076
16.83,0.241794,0.140069,10.048616
16.84,0.016580,0.062660,9.898546
16.85,0.169117,0.068681,10.081847
16.86,0.026825,-0.093101,9.809340
16.87,0.120687,-0.073275,9.756116
16.88,0.074222,0.129844,10.080447
16.89,0.197551,0.233339,9.754949
16.90,0.032462,0.083828,9.813136
16.91,-0.084566,-0.072112,9.942372
16.92,-0.048568,0.090826,9.674182
16.93,0.074941,0.362539,9.957458
16.94,0.022352,0.112613,9.957948
16.95,0.271402,0.314396,10.085858
16.96,0.237963,0.099969,10.086223
16.97,0.677992,0.246299,10.229919
16.98,0.316918,0.402261,10.166050
16.99,0.720404,0.467131,10.258514
17.00,0.772361,0.434417,10.954222
17.01,1.101726,0.551292,10.821516
17.02,1.468998,0.903089,11.317418
17.03,1.493808,1.075502,12.180930
17.04,2.138938,1.270924,12.998991
17.05,2.676214,1.467834,13.517730
17.06,2.710248,1.429533,14.349829
17.07,3.070661,1.532709,14.586259
17.08,3.375043,1.877682,15.323825
17.09,3.365972,1.929639,15.474909
17.10,3.359541,1.832198,15.966328
17.11,3.105950,1.904846,15.522645
17.12,3.315763,2.135799,15.218857
17.13,3.006112,2.070157,14.943621
17.14,2.616786,2.068909,14.366562
17.15,2.430175,2.148222,13.478910
17.16,2.001106,2.027155,12.863282
17.17,1.663627,1.985005,12.191058
17.18,1.472581,1.460539,11.502914
17.19,0.941801,1.572681,10.899925
17.20,0.968610,1.464480,10.757823
17.21,0.457284,1.031497,10.487018
17.22,0.368864,0.969868,10.330547
17.23,0.540735,0.786396,10.117462
17.24,0.340178,0.737681,9.825850
17.25,0.139133,0.790308,10.034592
17.26,-0.041064,0.711687,9.907843
17.27,-0.030749,0.260512,9.824011
17.28,0.014620,0.326186,9.841890
17.29,-0.008103,0.249938,9.782556
17.30,-0.036172,0.163448,10.002109
17.31,-0.037841,0.111720,9.678858
17.32,-0.066328,0.058539,9.738635
17.33,-0.218606,0.192583,9.832304
17.34,-0.111608,0.098518,10.104987
17.35,0.056619,-0.178160,10.027438
17.36,-0.220511,0.032752,9.650912
17.37,-0.082021,0.036785,10.070609
17.38,-0.160461,-0.036801,10.071125
17.39,-0.051433,0.059366,9.718622
17.40,-0.114039,-0.053777,9.530747
17.41,0.107365,-0.050844,9.874399
17.42,-0.011563,-0.057884,10.042399
17.43,-0.232113,-0.311406,10.108776
17.44,0.003598,-0.075096,9.764814
17.45,-0.172068,-0.141462,10.132727
17.46,-0.150416,-0.199164,9.576250
17.47,-0.045487,0.120007,9.837334
17.48,-0.144025,0.013326,9.831142
17.49,0.020359,-0.045718,10.051559
17.50,-0.181390,-0.104758,10.072664
17.51,-0.164282,0.003809,10.025153
17.52,-0.170224,0.092568,9.703133
17.53,-0.160679,-0.120252,10.013616
17.54,0.037869,-0.016161,9.964743
17.55,-0.019698,0.094057,9.660122
17.56,0.109034,-0.236939,9.605319
17.57,0.175067,-0.006025,10.040615
17.58,-0.221511,-0.045131,9.870668
17.59,-0.090033,-0.004188,9.716530
17.60,-0.240168,-0.042862,9.867874
17.61,-0.192759,0.039275,9.948536
17.62,-0.175360,0.258974,9.886511
17.63,-0.226793,-0.005413,9.681362
17.64,-0.226226,0.073712,10.163136
17.65,-0.117260,0.283243,10.040255
17.66,-0.245778,-0.017053,9.853206
17.67,0.001576,0.271682,9.859329
17.68,-0.209198,0.059418,9.951443
17.69,0.238610,0.277342,9.743428
17.70,-0.152057,0.158140,9.947198
17.71,-0.088484,0.109427,9.716157
17.72,-0.251687,0.069004,9.893010
17.73,0.109480,0.006139,9.739698
17.74,0.040198,0.094092,9.747167
17.75,-0.057291,0.196475,10.134489
17.76,-0.253204,0.090826,9.912757
17.77,-0.064866,0.057818,9.933867
17.78,-0.223169,0.068931,9.623590
17.79,0.088541,0.221126,9.821943
17.80,0.011920,0.251837,9.970422
17.81,-0.071870,0.027328,9.933347
17.82,-0.373727,0.029498,9.604908
17.83,-0.197315,0.157364,9.935763
17.84,0.005379,0.297021,9.958361
17.85,0.070637,0.252873,10.087037
17.86,0.060525,-0.033473,9.815832
17.87,-0.261196,0.086209,9.593916
17.88,-0.031464,0.007127,9.768487
17.89,0.056796,0.087350,9.754663
17.90,-0.261404,0.312380,10.011596
17.91,-0.060615,-0.050713,9.528305
17.92,-0.023997,-0.074369,9.846057
17.93,-0.090074,0.020111,10.108605
17.94,-0.273301,0.153407,9.910157
17.95,-0.087123,0.192562,10.034773
17.96,-0.084257,0.169459,9.679565
17.97,-0.059637,0.256695,9.685254
17.98,-0.106322,-0.097554,10.110849
17.99,-0.088658,0.254781,9.923895
18.00,-0.037010,0.072658,9.924261
18.01,0.024139,0.195586,9.753326
18.02,-0.062162,-0.053535,9.924029
18.03,-0.071434,0.103120,9.749527
18.04,-0.007812,0.127910,10.076146
18.05,-0.246000,0.235071,10.291894
18.06,0.045176,-0.097228,9.977750
18.07,-0.008698,0.093118,9.821094
18.08,-0.000420,-0.044564,9.555250
18.09,0.113558,0.142381,9.674099
18.10,-0.232612,0.170872,10.127554
18.11,-0.231681,0.227788,9.765724
18.12,0.041483,0.004692,9.857818
18.13,0.011209,0.175585,10.001391
18.14,0.035907,0.222914,10.117065
18.15,-0.036565,-0.142422,9.881488
18.16,0.101994,0.123295,9.852650
18.17,0.137543,0.159777,9.919190
18.18,0.087029,0.008557,9.821142
18.19,0.000942,-0.110925,9.828512
18.20,-0.217430,0.142215,9.966332
18.21,0.131010,-0.120250,9.934419
18.22,0.188471,-0.003129,10.206700
18.23,0.122324,0.008001,9.969499
18.24,-0.057521,0.093196,10.068993
18.25,0.131893,-0.073364,9.757612
18.26,0.157242,-0.085822,9.980861
18.27,0.243912,0.002703,9.805856
18.28,-0.045470,0.106123,9.962159
18.29,0.035225,0.254405,10.002897
18.30,0.154735,-0.206390,9.913184
18.31,0.074537,0.006999,10.242914
18.32,-0.063928,-0.166512,10.105478
18.33,0.122326,0.080921,10.070036
18.34,0.144345,-0.159083,10.011870
18.35,0.087705,-0.132440,10.151377
18.36,0.105652,-0.127111,9.702955
18.37,0.050315,-0.070339,10.095582
18.38,0.260713,-0.027080,9.764569
18.39,-0.022902,-0.012350,9.823924
18.40,0.016461,-0.075468,9.981103
18.41,0.089913,-0.238588,10.074723
18.42,0.195619,0.004275,9.740124
18.43,-0.088098,-0.093298,9.829410
18.44,-0.064317,0.048764,9.914350
18.45,-0.150387,-0.179083,9.874122
18.46,0.099173,-0.289739,10.019284
18.47,-0.037952,-0.104657,10.380244
18.48,0.050979,0.052045,9.957403
18.49,0.177255,-0.086834,9.795242
18.50,0.021552,-0.132562,9.716120
18.51,0.126821,-0.215270,9.851545
18.52,0.063558,0.098111,9.764884
18.53,0.180426,-0.238129,9.961403
18.54,0.156961,-0.203139,9.958645
18.55,0.016968,-0.048959,9.829924
18.56,0.079697,-0.341109,10.172056
18.57,0.225000,0.033790,9.790584
18.58,0.146652,-0.044782,9.876199
18.59,-0.068611,-0.012050,9.981765
18.60,0.177158,-0.053004,10.016522
18.61,-0.032327,-0.139080,10.069836
18.62,0.266553,-0.246839,9.950296
18.63,0.219052,-0.135335,10.036755
18.64,0.129941,-0.234570,9.795823
18.65,0.112903,-0.057971,10.016771
18.66,0.067720,-0.018020,10.014192
18.67,0.172884,0.064101,10.098615
18.68,0.045517,-0.066548,9.652500
18.69,0.116719,0.001978,9.758337
18.70,0.191418,-0.142209,9.999834
18.71,0.017601,-0.161302,9.512645
18.72,0.009205,-0.044207,9.951950
18.73,-0.062145,-0.144350,10.030665
18.74,-0.048624,-0.062391,9.800813
18.75,-0.142455,-0.218557,9.820484
18.76,0.162280,-0.193338,9.729527
18.77,0.289428,-0.007439,9.806077
18.78,0.240970,0.026746,9.809312
18.79,-0.127711,-0.193736,9.781843
18.80,0.151810,0.009374,9.773326
18.81,0.232810,-0.130521,9.837813
18.82,0.004597,-0.059965,9.835262
18.83,0.068773,0.112865,10.136411
18.84,-0.187230,0.044628,9.817974
18.85,0.082779,0.048242,9.920460
18.86,-0.079863,0.186899,9.790626
18.87,0.068656,-0.121425,9.787950
18.88,-0.145762,-0.149991,9.630977
18.89,0.103558,-0.113001,9.648686
18.90,0.158144,-0.051491,9.698778
18.91,-0.062034,-0.298057,9.892548
18.92,-0.107776,-0.034930,10.016560
18.93,-0.233395,-0.069894,9.614822
18.94,-0.010000,0.095009,9.787136
18.95,-0.051205,0.048749,9.671686
18.96,-0.170942,-0.060137,9.825090
18.97,0.066118,0.088204,10.011728
18.98,-0.045679,0.109626,9.797581
18.99,-0.124219,-0.064013,9.852511
19.00,-0.065133,-0.025632,10.061907
19.01,0.126517,-0.228264,9.921287
19.02,0.066860,-0.086931,9.749768
19.03,-0.024542,-0.040071,9.877423
19.04,0.061917,0.062903,9.738306
19.05,-0.155106,-0.054573,9.912013
19.06,-0.015314,0.002014,9.924270
19.07,-0.004898,-0.078773,9.659692
19.08,-0.082308,0.093321,9.874581
19.09,0.023009,0.128286,9.832561
19.10,-0.126178,0.129807,9.924233
19.11,0.025421,0.087271,9.963318
19.12,0.027296,-0.094879,9.912720
19.13,-0.392072,0.019997,9.802374
19.14,0.097864,0.050064,9.974430
19.15,-0.413449,0.055484,9.720482
19.16,-0.124093,0.118461,9.656804
19.17,0.070990,0.287108,9.393355
19.18,-0.091094,0.221538,9.830019
19.19,-0.228419,0.015697,9.724251
19.20,-0.180749,0.228559,9.894994
19.21,0.080521,0.240725,9.564624
19.22,-0.260688,0.088816,9.753710
19.23,0.126518,0.315292,9.918386
19.24,0.017723,0.229759,9.724596
19.25,-0.068815,0.124647,9.955764
19.26,0.076154,0.404156,9.871773
19.27,0.123597,0.443628,10.029293
19.28,0.482545,0.472006,10.248622
19.29,0.637718,0.591180,10.494300
19.30,0.556153,0.620755,10.651224
19.31,0.968293,0.906371,10.898578
19.32,1.205459,0.967672,11.428126
19.33,1.786482,1.144155,12.163948
19.34,1.808480,1.326860,12.599323
19.35,2.502077,1.309810,13.434916
19.36,2.624266,1.505110,14.122406
19.37,2.765713,1.505533,14.815560
19.38,3.038660,1.985213,15.214681
19.39,3.159710,1.901268,15.438073
19.40,3.149092,2.169020,15.887928
19.41,3.265893,2.276347,15.830065
19.42,2.969803,2.351498,15.100558
19.43,2.639335,2.148472,14.874904
19.44,2.577153,2.264437,14.319042
19.45,2.086306,2.418358,13.531983
19.46,1.871946,2.338009,12.670421
19.47,1.512526,2.137521,11.926887
19.48,1.193508,1.923438,11.485541
19.49,1.244521,1.608868,11.026932
19.50,0.755586,1.650759,10.629146
19.51,0.564335,1.374945,10.310903
19.52,0.149212,1.290375,9.986703
19.53,0.149707,0.981038,10.063800
19.54,0.153240,0.878762,9.984180
19.55,-0.068616,0.773466,9.892859
19.56,0.112162,0.651363,9.848363
19.57,-0.175596,0.564017,10.049475
19.58,-0.087927,0.333442,9.716519
19.59,-0.137606,0.154742,9.977404
19.60,-0.055441,0.437789,9.691747
19.61,-0.156051,0.480998,9.947525
19.62,-0.113266,0.186539,9.963322
19.63,-0.109118,-0.065965,9.748293
19.64,-0.167981,-0.031857,10.020657
19.65,-0.020132,0.096523,9.852648
19.66,-0.047860,0.176053,9.663052
19.67,-0.084988,-0.146674,9.732387
19.68,-0.123733,-0.029169,9.942261
19.69,0.025908,-0.001498,9.911813
19.70,-0.095474,0.069738,9.633373
19.71,-0.101386,-0.082947,9.760920
19.72,-0.049346,-0.236125,9.807831
19.73,0.144430,0.020023,9.707198
19.74,-0.217182,0.074922,10.107284
19.75,0.038931,-0.075100,9.808839
19.76,-0.277680,-0.021382,9.766411
19.77,-0.021415,-0.131511,9.940726
19.78,0.144591,-0.180397,9.721824
19.79,0.017344,0.040146,9.912946
19.80,-0.017650,-0.040446,9.537380
19.81,-0.102162,-0.031821,9.706313
19.82,-0.027924,0.086068,9.915661
19.83,-0.058601,-0.224083,9.987591
19.84,-0.119340,-0.166853,9.658480
19.85,-0.056448,-0.084553,9.641149
19.86,0.005529,-0.173899,9.844155
19.87,-0.106935,-0.014657,9.676483
19.88,-0.108198,-0.133345,9.725107
19.89,-0.171234,-0.231951,9.884411
19.90,0.042331,-0.106707,9.684553
19.91,0.064337,-0.095670,9.484587
19.92,0.030153,-0.005216,9.576620
19.93,0.121627,-0.071222,9.759198
19.94,0.019796,-0.063832,9.495963
19.95,0.059728,-0.081256,9.714285
19.96,0.052567,-0.142546,9.560047
19.97,0.008522,-0.205922,9.983591
19.98,-0.040815,-0.085080,10.056186
19.99,0.291932,-0.159228,9.603993
20.00,-0.024682,0.084264,9.787168
20.01,-0.047070,0.043535,9.615854
20.02,0.088160,-0.040351,9.706103
20.03,0.069502,-0.069396,10.000997
20.04,-0.126141,-0.123646,9.682287
20.05,0.180258,-0.262467,9.706698
20.06,0.037283,-0.134880,9.613917
20.07,-0.081735,-0.094349,9.905474
20.08,0.197160,-0.076337,9.287295
20.09,0.132451,-0.044663,9.681314
20.10,-0.091579,0.012630,9.736043
20.11,0.276152,-0.177706,9.649086
20.12,0.144594,-0.173134,9.861712
20.13,0.066885,0.086611,9.908288
20.14,0.261424,0.008884,9.541515
20.15,0.092119,-0.126493,10.031494
20.16,0.071950,-0.088264,9.538365
20.17,-0.001688,-0.083365,9.917254
20.18,0.149505,-0.062741,9.757055
20.19,0.138916,-0.005159,9.664804
20.20,0.085427,0.247097,9.677263
20.21,-0.009290,-0.029432,9.729145
20.22,0.102840,0.032318,9.762288
20.23,0.080509,-0.244462,9.603569
20.24,-0.069602,-0.095076,9.698931
20.25,-0.084781,0.115844,9.623090
20.26,0.160968,0.022005,9.560189
20.27,-0.217876,-0.547570,9.615195
20.28,0.120088,0.065447,9.567954
20.29,0.039044,0.220216,9.669472
20.30,0.254263,-0.243979,9.788193
20.31,0.038800,0.183360,9.743910
20.32,0.177781,-0.326101,10.002793
20.33,0.051521,0.124581,9.416306
20.34,0.113191,0.016445,9.790873
20.35,0.188233,-0.259088,9.725471
20.36,0.044458,0.081821,9.838184
20.37,0.219584,0.171703,9.823724
20.38,-0.019334,0.082515,9.699759
20.39,0.135055,0.114193,9.746480
20.40,0.210096,-0.000315,9.617601
20.41,0.178140,-0.169311,9.807159
20.42,0.328347,0.141935,9.457686
20.43,0.006081,0.273613,9.828981
20.44,-0.068600,0.203790,9.716488
20.45,-0.023334,-0.165851,9.651063
20.46,0.174213,-0.104792,9.686228
20.47,0.153571,-0.020381,9.696037
20.48,0.104839,-0.106054,9.899501
20.49,-0.043549,0.094196,10.170134
20.50,0.181759,0.139705,9.887804
20.51,-0.058808,-0.075727,9.637466
20.52,0.225546,0.192365,9.804383
20.53,0.427578,0.174240,9.810093
20.54,0.126772,0.039112,9.585930
20.55,0.150784,0.086751,9.538578
20.56,0.019584,-0.124187,9.705881
20.57,-0.140676,0.072024,9.827481
20.58,0.001955,0.114652,9.488423
20.59,-0.059224,0.135646,9.612837
20.60,-0.104161,0.162250,9.793633
20.61,0.273637,0.147238,9.719014
20.62,0.097091,0.087104,9.911175
20.63,0.107227,0.153817,9.515041
20.64,0.021825,0.240118,10.041684
20.65,0.035336,0.108568,9.496823
20.66,0.168933,0.158049,9.427832
20.67,0.046349,0.097272,9.703454
20.68,0.110896,0.041452,9.552676
20.69,0.020622,0.181053,9.705885
20.70,-0.000035,0.050748,9.700813
20.71,-0.130966,0.162648,9.683563
20.72,-0.202653,0.118568,9.592884
20.73,0.000100,0.077600,9.771257
20.74,0.035116,0.073755,9.666137
20.75,-0.129039,0.051578,9.864979
20.76,0.018360,-0.084897,9.685151
20.77,0.026609,0.159583,9.575358
20.78,-0.240069,0.143926,9.474278
20.79,-0.091246,0.222692,9.686911
20.80,0.069707,0.064415,9.534395
20.81,0.073282,0.366920,9.525431
20.82,-0.099883,0.110159,9.793058
20.83,0.077760,0.073259,9.479659
20.84,0.213692,0.089341,9.943566
20.85,0.233069,0.040169,9.799032
20.86,0.199044,0.482761,9.822954
20.87,0.252583,0.526456,9.769503
20.88,0.364804,0.510891,10.153960
20.89,0.666268,0.422886,10.243328
20.90,0.844673,0.854543,10.426242
20.91,1.149495,0.716645,10.925743
20.92,1.380475,0.862006,11.143114
20.93,1.783421,1.213928,11.733518
20.94,2.033987,1.276395,12.474414
20.95,2.454049,1.622043,13.398987
20.96,2.781189,1.548240,14.067462
20.97,2.855086,1.625669,14.869671
20.98,2.947439,1.743435,15.121272
20.99,3.483554,1.721535,15.673211
21.00,3.373172,2.013372,15.695829
21.01,3.086949,2.260347,15.461155
21.02,3.067470,2.239946,15.304861
21.03,3.027339,2.182199,14.714843
21.04,2.620607,2.037847,13.981537
21.05,2.270337,2.128550,13.358051
21.06,2.157093,2.135892,12.615647
21.07,1.520340,1.951702,11.943911
21.08,1.224257,1.783082,11.324327
21.09,1.049312,1.513394,10.718883
21.10,0.812748,1.547800,10.536992
21.11,0.609043,0.897214,10.136005
21.12,0.483818,1.148363,9.909172
21.13,0.261585,1.245156,9.886163
21.14,0.193175,0.598929,9.937765
21.15,0.027732,0.606157,9.808985
21.16,0.012686,0.503397,9.678244
21.17,-0.018945,0.333227,9.655706
21.18,-0.030872,0.412950,9.815805
21.19,0.019765,0.260184,9.386874
21.20,-0.016735,0.150796,9.832120
21.21,-0.084602,0.170048,9.457462
21.22,-0.191080,0.029557,9.521629
21.23,-0.088382,0.372028,9.648051
21.24,-0.101413,-0.020336,10.024269
21.25,-0.075811,-0.037305,9.955760
21.26,0.165236,-0.282846,9.820335
21.27,-0.162689,-0.155396,9.771868
21.28,-0.049256,0.038222,9.461773
21.29,0.028348,-0.266459,9.744990
21.30,-0.087907,-0.369922,9.646717
21.31,0.181203,-0.110489,9.609849
21.32,-0.144251,0.047876,9.746441
21.33,-0.059425,-0.112931,9.659410
21.34,-0.193483,-0.159102,9.847676
21.35,-0.139003,-0.342016,9.455558
21.36,-0.066025,-0.064530,9.737723
21.37,0.006696,-0.038886,9.604788
21.38,-0.055419,-0.331166,9.671162
21.39,0.058645,0.019959,9.771820
21.40,-0.102472,-0.022857,9.573420
21.41,-0.129456,0.022840,9.753517
21.42,0.236471,-0.041065,9.701489
21.43,-0.039006,-0.030457,9.639436
21.44,-0.170856,-0.043992,9.666749
21.45,-0.165933,0.000385,9.711713
21.46,-0.193747,-0.319216,9.626585
21.47,0.033855,-0.278013,9.735816
21.48,-0.120072,-0.182921,9.696629
21.49,-0.058787,-0.106694,9.650754
21.50,-0.079326,-0.040863,9.959681
21.51,0.018525,-0.044618,9.796016
21.52,-0.168329,0.054509,9.685090
21.53,-0.193175,0.062479,9.759888
21.54,-0.034501,-0.175665,9.596519
21.55,0.013462,-0.037838,9.679941
21.56,-0.015916,-0.163556,9.697102
21.57,-0.150054,-0.079625,9.568194
21.58,0.031342,-0.013520,9.797816
21.59,-0.136197,-0.456170,9.673650
21.60,-0.106439,0.247335,9.695529
21.61,-0.153998,0.031153,9.666540
21.62,0.118595,-0.103025,10.161308
21.63,0.041692,0.205085,9.655152
21.64,0.041546,-0.062494,9.459194
21.65,0.121915,0.000541,9.525717
21.66,0.313103,-0.068342,9.856916
21.67,-0.226156,0.193845,9.938630
21.68,-0.106264,-0.011489,9.656996
21.69,-0.088189,0.024547,9.932430
21.70,-0.112918,0.156550,9.858135
21.71,-0.136688,0.087774,9.728728
21.72,-0.039887,0.016460,9.719743
21.73,-0.146466,0.161605,9.782484
21.74,0.043187,0.338293,9.880969
21.75,0.012637,0.077010,9.814717
21.76,0.067601,0.058095,9.665319
21.77,0.074237,0.069630,9.736667
21.78,0.089087,0.211374,10.039422
21.79,-0.024686,-0.012927,9.798210
21.80,0.278032,0.030308,9.885748
21.81,0.054971,-0.116191,9.840633
21.82,-0.193346,-0.069310,9.804333
21.83,-0.086857,0.014917,9.782299
21.84,-0.172196,0.074478,9.893740
21.85,0.041937,0.297446,9.869745
21.86,0.028385,0.153263,9.807115
21.87,-0.010116,-0.016906,9.674083
21.88,0.290445,0.008591,9.826233
21.89,0.117992,0.264122,9.763923
21.90,0.142163,0.237340,9.731203
21.91,-0.053845,0.108305,10.150446
21.92,-0.059231,0.054383,9.561014
21.93,0.067794,0.244812,9.911741
21.94,0.086772,-0.007277,9.657847
21.95,-0.154190,0.160833,9.798064
21.96,0.049405,0.388136,10.140378
21.97,0.075119,0.141444,9.647128
21.98,0.049914,0.024867,9.681605
21.99,-0.019664,0.168076,9.781585
22.00,0.015317,0.063071,9.666521
22.01,0.060861,-0.047432,9.909996
22.02,0.094904,0.204124,9.712494
22.03,0.158407,0.254025,9.879992
22.04,0.217257,0.082209,9.603450
22.05,0.053849,0.073631,9.537689
22.06,0.035943,0.002643,9.759698
22.07,0.144602,0.098922,9.573278
22.08,0.166677,0.048067,10.006542
22.09,0.042453,-0.007378,9.580929
22.10,0.190472,0.339161,9.650945
22.11,0.214129,0.165998,9.855249
22.12,0.252419,0.176394,9.716374
22.13,0.311537,0.211175,9.587014
22.14,-0.005226,0.194931,10.086309
22.15,0.100899,0.049858,9.661612
22.16,0.100953,0.128953,9.775493
22.17,0.088080,0.060575,9.774810
22.18,0.022068,0.141892,9.904670
22.19,-0.078277,0.126509,9.871086
22.20,0.111003,0.035636,9.691735
22.21,0.007451,-0.082082,9.763002
22.22,0.109626,0.090697,9.777980
22.23,0.003557,0.044198,9.915734
22.24,-0.033701,-0.162718,9.648445
22.25,0.125674,0.120328,10.095677
22.26,0.114851,0.170407,9.707986
22.27,0.165322,0.353011,9.814176
22.28,0.357064,-0.002398,9.654131
22.29,0.126875,-0.025255,9.635916
22.30,0.150538,-0.098979,9.696365
22.31,-0.038361,0.053878,9.684038
22.32,-0.064973,0.047748,9.763040
22.33,0.277797,-0.079306,9.685104
22.34,-0.024662,-0.008401,9.920658
22.35,-0.040924,-0.230334,9.714783
22.36,0.077752,0.112771,9.700385
22.37,0.069616,-0.096379,9.771620
22.38,-0.029963,-0.013552,9.966747
22.39,0.039547,-0.186071,9.858944
22.40,0.221384,-0.090195,9.816014
22.41,-0.025234,-0.059265,9.630452
22.42,-0.098214,-0.032416,9.672203
22.43,0.179597,0.021225,9.654306
22.44,0.122941,0.131141,10.017341
22.45,-0.013294,0.041259,9.909756
22.46,-0.131462,0.063773,9.715942
22.47,-0.033796,0.116935,9.758646
22.48,0.046088,0.006975,9.723202
22.49,0.189565,-0.070458,9.715804
22.50,-0.077734,0.050516,9.905344
22.51,0.033430,0.053808,9.801720
22.52,0.121454,-0.001343,10.134408
22.53,-0.248500,-0.257778,10.019161
22.54,0.158078,-0.188074,10.028498
22.55,-0.111140,-0.123774,9.940218
22.56,0.067288,-0.000740,9.788107
22.57,0.053712,-0.100160,9.932017
22.58,0.150892,0.035728,9.800532
22.59,0.083461,0.054245,10.078644
22.60,-0.271338,0.037648,9.908037
22.61,-0.083666,0.035967,9.889195
22.62,0.023650,-0.235354,9.871276
22.63,-0.019783,-0.054982,10.098138
22.64,0.057473,-0.187548,9.654786
22.65,0.091428,-0.314037,10.113875
22.66,0.066267,-0.151906,9.831452
22.67,-0.035903,0.040545,9.661645
22.68,-0.235182,-0.063898,9.754182
22.69,-0.071694,0.122436,9.629358
22.70,0.029534,-0.098695,9.952956
22.71,-0.154654,0.173766,9.717049
22.72,0.048611,-0.098424,9.886984
22.73,0.078556,-0.116530,10.023114
22.74,-0.018500,-0.272002,9.771187
22.75,-0.404610,0.015799,9.828674
22.76,-0.193515,-0.176459,9.684669
22.77,0.183058,-0.192326,9.813695
22.78,-0.111956,0.040861,10.229345
22.79,-0.287499,0.028175,9.978802
22.80,0.095861,0.027415,9.833731
22.81,-0.053662,-0.149173,9.786051
22.82,0.074517,-0.108706,9.866606
22.83,-0.027545,-0.106164,9.891661
22.84,-0.008308,-0.000858,9.815660
22.85,-0.022109,0.096686,9.949414
22.86,0.016043,-0.039494,9.742614
22.87,0.204220,0.160788,9.742860
22.88,0.046970,0.040804,9.929921
22.89,-0.258140,-0.083223,9.715823
22.90,-0.011396,0.059447,9.983441
22.91,0.079322,0.183942,9.882567
22.92,0.099832,0.243559,9.634272
22.93,-0.073957,0.177336,9.915631
22.94,0.150923,0.077204,9.682487
22.95,0.173009,0.096961,10.047050
22.96,0.442866,0.252147,9.968316
22.97,0.144344,0.456671,10.348281
22.98,0.307046,0.394635,10.372382
22.99,0.503097,0.498859,10.271358
23.00,0.694312,0.567556,10.416159
23.01,0.901300,0.654161,10.969445
23.02,0.969601,0.820085,11.385721
23.03,1.571890,1.013671,12.396639
23.04,2.008328,1.370264,12.808925
23.05,2.244625,1.306786,13.660393
23.06,2.855484,1.513268,14.208186
23.07,2.902468,1.568973,14.878319
23.08,3.271320,1.913299,15.426626
23.09,3.284490,2.128551,15.929237
23.10,3.399184,2.273997,15.937380
23.11,3.286747,2.190464,15.627531
23.12,3.280889,2.290794,15.660817
23.13,2.907932,2.225728,14.866185
23.14,2.683248,2.295466,14.189260
23.15,2.348365,2.224179,13.139760
23.16,1.930122,2.116659,12.906594
23.17,1.673478,2.021794,12.163820
23.18,1.570191,1.932265,11.580561
23.19,0.976711,1.698163,11.029868
23.20,0.804644,1.548281,10.630865
23.21,0.692046,1.620497,10.381674
23.22,0.506155,1.578886,10.302027
23.23,0.237248,0.951703,10.194615
23.24,-0.150237,0.796283,9.988023
23.25,0.125395,0.695371,10.101281
23.26,-0.253395,0.674314,9.927018
23.27,0.155541,0.685464,9.850591
23.28,-0.022144,0.555242,9.940051
23.29,0.064411,0.425902,9.717554
23.30,-0.171049,0.403396,9.938467
23.31,-0.252510,0.203930,9.689238
23.32,-0.035882,0.215610,9.761122
23.33,-0.070641,0.209687,9.622524
23.34,-0.124095,-0.003119,9.880879
23.35,-0.052886,0.028744,10.131042
23.36,0.271457,0.019537,9.889612
23.37,0.042136,0.235612,9.996410
23.38,0.070706,0.165975,10.235928
23.39,0.048916,0.204517,9.963458
23.40,0.128137,-0.093481,9.800034
23.41,-0.069181,-0.053704,9.819565
23.42,-0.289858,0.201558,9.907765
23.43,-0.062778,-0.213478,9.819304
23.44,0.060448,0.265060,9.830001
23.45,-0.150104,-0.102529,10.046280
23.46,-0.051619,0.215568,10.052205
23.47,-0.110159,0.005707,9.678164
23.48,0.156439,0.236011,9.794359
23.49,0.069500,0.492741,9.844103
23.50,0.061145,-0.167600,9.993084
23.51,0.060967,0.185841,10.069377
23.52,-0.014665,-0.117575,10.287745
23.53,0.016955,0.147422,9.844385
23.54,-0.145522,0.068003,9.851475
23.55,-0.262218,0.104802,9.992161
23.56,0.021620,-0.023948,9.814323
23.57,0.045939,0.175166,9.890157
23.58,0.155614,-0.096427,9.851833
23.59,0.202493,0.222086,9.542940
23.60,0.205745,0.019538,9.927245
23.61,-0.099025,-0.104260,9.884469
23.62,-0.018166,0.250736,10.087967
23.63,0.085084,0.046418,9.910746
23.64,0.334579,0.278456,9.734282
23.65,0.211631,0.191039,9.873769
23.66,0.171576,-0.056459,9.617096
23.67,-0.006102,0.023880,9.740250
23.68,-0.062416,0.043292,9.998667
23.69,0.141321,0.206552,9.874975
23.70,-0.082399,0.070477,10.038646
23.71,0.024037,0.033671,9.634010
23.72,0.041782,-0.016955,9.875298
23.73,0.249544,-0.004537,9.842526
23.74,0.018601,0.152578,10.042758
23.75,-0.228848,-0.009023,10.002956
23.76,0.127016,-0.062343,9.998501
23.77,-0.014859,-0.088128,10.124187
23.78,0.076598,-0.092239,9.856649
23.79,0.063451,-0.199385,10.094872
23.80,0.043297,-0.126460,9.761538
23.81,0.173176,0.138191,9.756158
23.82,-0.103508,-0.071528,10.012607
23.83,0.020399,0.032775,9.696288
23.84,0.166432,-0.354115,9.986855
23.85,0.012463,0.006743,9.920556
23.86,-0.105201,-0.085478,10.056124
23.87,0.169680,-0.128411,9.897422
23.88,0.225716,-0.053297,9.913258
23.89,0.086927,-0.138727,9.976364
23.90,-0.141702,-0.338142,9.811939
23.91,0.179476,0.023519,9.805472
23.92,-0.103380,-0.061679,9.970380
23.93,0.133795,-0.132014,9.899466
23.94,-0.008939,-0.213584,9.846138
23.95,-0.040923,-0.277121,9.891155
23.96,0.045812,-0.076754,10.125554
23.97,0.077311,0.087325,9.839852
23.98,0.022348,-0.084350,9.835340
23.99,0.170526,-0.276875,9.661916
24.00,0.046462,-0.085910,9.894553
24.01,0.217602,-0.121068,9.991959
24.02,0.133590,-0.012483,10.016564
24.03,0.015893,-0.044617,9.914137
24.04,-0.004681,-0.476734,10.032281
24.05,-0.098955,-0.053767,10.000304
24.06,0.133028,-0.240124,10.053200
24.07,0.054867,-0.290573,10.034634
24.08,-0.188084,-0.142588,10.116062
24.09,0.031340,-0.070408,9.871931
24.10,-0.013566,-0.316114,9.709311
24.11,0.282459,-0.033927,9.987421
24.12,-0.112248,-0.025876,10.003167
24.13,-0.082279,-0.110590,10.113068
24.14,0.222369,-0.218846,10.072018
24.15,0.250368,-0.230513,10.164361
24.16,-0.003563,0.012115,9.978122
24.17,0.008161,-0.290103,9.922713
24.18,0.156037,0.021477,9.696109
24.19,-0.199183,-0.123319,9.932456
24.20,-0.145384,-0.111941,9.811278
24.21,0.042076,-0.302032,9.917537
24.22,0.259484,-0.110907,9.894844
24.23,0.018893,-0.015443,9.952533
24.24,0.080968,-0.244623,9.872136
24.25,0.202647,-0.018823,10.015936
24.26,0.317347,-0.061353,9.503076
24.27,-0.006361,-0.141284,9.910248
24.28,0.059960,0.048370,10.051448
24.29,0.281119,-0.306173,10.144637
24.30,-0.117402,0.015197,9.985641
24.31,0.195041,0.187577,10.120629
24.32,-0.038328,0.190963,9.912400
24.33,0.116717,0.096453,9.897662
24.34,0.107869,0.053017,9.987877
24.35,0.071093,0.062062,9.943275
24.36,0.138937,0.162327,9.885742
24.37,0.388483,0.336943,10.007525
24.38,0.606448,0.261805,10.055621
24.39,0.641251,0.551463,10.481148
24.40,0.876338,0.833755,10.686376
24.41,1.189090,0.702566,11.008837
24.42,1.294502,0.694760,11.459880
24.43,1.820186,0.852624,12.192667
24.44,2.166963,1.273845,12.898961
24.45,2.718026,1.344905,13.349181
24.46,2.676906,1.628619,14.043965
24.47,2.941596,1.625116,15.011669
24.48,3.301164,1.943165,15.211658
24.49,3.440582,1.961560,15.822374
24.50,3.321546,2.006949,16.089950
24.51,3.287070,2.133486,15.970509
24.52,3.260153,2.093490,15.503660
24.53,2.876769,2.497831,14.971542
24.54,2.645497,2.235148,14.531871
24.55,2.382306,2.278081,13.171094
24.56,2.147402,2.059075,12.713241
24.57,1.611450,1.892431,12.227393
24.58,1.135976,1.862906,11.476738
24.59,0.829976,1.878053,11.215687
24.60,0.649738,1.526826,10.660214
24.61,0.425787,1.322543,10.404665
24.62,0.388671,1.283106,10.150020
24.63,0.126675,1.166353,9.981769
24.64,0.080497,1.154196,9.892051
24.65,-0.004918,0.861686,9.953176
24.66,-0.019841,0.772347,9.774929
24.67,0.153398,0.671977,9.998443
24.68,0.047954,0.352942,9.946061
24.69,-0.047173,0.295975,10.002655
24.70,-0.116246,0.215464,9.687245
24.71,-0.120895,0.132009,9.605173
24.72,-0.035108,0.344515,9.840930
24.73,-0.008331,0.250320,10.246049
24.74,-0.190392,0.199195,10.016312
24.75,-0.079560,-0.141110,9.760299
24.76,-0.329822,0.401940,9.896251
24.77,-0.062463,0.037005,9.937585
24.78,0.001928,0.382388,9.643052
24.79,-0.124654,-0.043841,10.025276
24.80,0.125549,0.027911,9.808988
24.81,-0.199452,-0.142649,9.818628
24.82,-0.068764,0.162049,9.833547
24.83,-0.100194,-0.016308,9.989344
24.84,-0.108854,-0.015506,9.722271
24.85,-0.111344,-0.054005,9.587908
24.86,-0.085463,0.201367,9.870981
24.87,0.002867,0.190734,9.538538
24.88,0.065985,0.319926,9.781376
24.89,-0.099949,0.017150,9.988571
24.90,-0.002058,0.122464,9.902359
24.91,-0.184206,-0.061929,9.966091
24.92,-0.008058,0.048986,9.905885
24.93,-0.191270,0.023147,10.155355
24.94,0.031308,0.137183,9.734427
24.95,0.166085,0.199363,9.871390
24.96,-0.113344,0.191958,9.753185
24.97,-0.361184,-0.032550,9.947344
24.98,-0.163115,0.183816,9.803641
24.99,0.051327,0.053988,10.051769
25.00,-0.029164,0.015480,9.735686
25.01,-0.064586,-0.035551,10.005867
25.02,0.027776,-0.022786,9.890778
25.03,-0.033828,0.248325,9.802063
25.04,0.055577,0.070896,9.881420
25.05,0.021301,0.049648,9.840925
25.06,0.095200,-0.008148,9.853053
25.07,-0.042617,0.311417,9.773130
25.08,0.024791,0.169042,9.702742
25.09,-0.118762,-0.079572,9.752929
25.10,-0.152051,-0.031379,9.563074
25.11,0.127063,-0.029758,9.915464
25.12,-0.049585,0.007961,9.623547
25.13,0.023366,-0.099165,9.764880
25.14,-0.055974,0.032197,9.884959
25.15,-0.138724,0.148390,9.910632
25.16,-0.064461,-0.188842,9.543552
25.17,0.109182,-0.171864,9.778033
25.18,0.006209,-0.099669,9.854147
25.19,-0.263008,-0.099221,9.795959
25.20,-0.080602,0.187993,9.975743
25.21,0.162026,0.063474,9.671419
25.22,-0.074520,0.051799,9.498509
25.23,-0.261878,-0.097903,9.897726
25.24,0.184444,-0.105057,9.707997
25.25,0.042314,-0.249275,9.535905
25.26,-0.044778,0.014525,9.758825
25.27,-0.077706,-0.024404,9.952214
25.28,0.100026,0.067117,9.602004
25.29,-0.091579,-0.116190,10.104826
25.30,0.114597,-0.111401,9.659415
25.31,0.045244,-0.077280,9.787835
25.32,0.012941,0.006249,9.603915
25.33,0.004459,-0.280085,9.779364
25.34,-0.030566,-0.017996,9.753763
25.35,0.119352,-0.111221,9.562912
25.36,-0.106513,-0.238009,10.166016
25.37,-0.193848,-0.363102,9.700017
25.38,0.077970,-0.131065,9.699109
25.39,0.083436,0.057539,9.902973
25.40,0.068756,0.083522,10.020284
25.41,0.063482,-0.075802,9.922975
25.42,-0.020501,0.116236,9.596100
25.43,0.115850,-0.124865,9.793210
25.44,0.019248,-0.005571,9.498874
25.45,-0.030406,-0.174118,9.887514
25.46,-0.006080,-0.181472,9.531364
25.47,0.277086,-0.200520,9.646864
25.48,-0.170367,-0.365730,9.757892
25.49,0.100981,0.036986,9.819677
25.50,-0.157360,-0.193213,9.719886
25.51,0.034219,-0.210897,9.968138
25.52,-0.001811,-0.254586,9.855775
25.53,-0.197021,-0.135541,9.843845
25.54,0.102761,0.102807,9.580538
25.55,0.013299,0.144875,9.989642
25.56,-0.190244,-0.303024,9.638386
25.57,0.165092,-0.143378,9.993164
25.58,0.239151,-0.221878,10.032115
25.59,0.248292,0.024139,9.819887
25.60,0.114995,-0.056578,9.891713
25.61,0.079805,-0.163673,9.314746
25.62,0.235926,-0.074708,9.718186
25.63,0.280610,-0.136664,9.898929
25.64,0.216836,0.118545,9.873206
25.65,-0.030190,-0.005161,9.572170
25.66,0.108845,0.014100,9.700976
25.67,0.139212,-0.381653,9.386180
25.68,-0.129000,-0.064851,9.798273
25.69,0.146056,0.198054,9.475980
25.70,0.363963,0.112220,9.897113
25.71,0.169359,-0.263453,9.903638
25.72,0.270628,-0.074212,9.670864
25.73,0.116908,-0.175505,9.809482
25.74,0.087199,0.179354,9.705348
25.75,0.142649,0.008734,9.768856
25.76,-0.000206,-0.107272,9.573629
25.77,-0.017281,-0.005564,9.820661
25.78,0.250891,-0.317052,9.503023
25.79,0.264060,-0.128861,9.475885
25.80,-0.019229,0.011208,9.714301
25.81,0.216070,0.113802,9.701103
25.82,0.089562,-0.215176,9.768116
25.83,0.140741,-0.022535,9.638389
25.84,0.155039,0.149740,9.992654
25.85,0.218864,-0.140283,9.750489
25.86,0.109078,0.066636,9.759966
25.87,0.267863,0.052211,9.754344
25.88,0.135147,0.255087,9.866518
25.89,0.172176,0.026708,9.806142
25.90,-0.003577,0.038581,9.786783
25.91,0.354479,0.166493,9.827350
25.92,0.150731,-0.090674,9.468288
25.93,0.178711,0.046428,9.473009
25.94,-0.101144,0.022539,9.711964
25.95,-0.008308,0.064687,9.694394
25.96,0.237433,0.187124,9.802709
25.97,0.121678,0.155595,9.723816
25.98,-0.144143,0.002845,9.801965
25.99,0.208263,0.112488,9.545621
26.00,0.016472,0.278133,9.718013
26.01,0.249044,0.002502,9.531294
26.02,0.067011,0.122457,9.772738
26.03,0.099888,0.084408,9.455165
26.04,0.214480,0.102350,9.766448
26.05,-0.037098,-0.083675,9.511596
26.06,-0.051030,0.283152,9.663145
26.07,0.041962,0.022556,9.841723
26.08,0.162154,0.239982,9.747873
26.09,-0.099536,0.043417,9.485267
26.10,-0.142790,0.043802,9.621155
26.11,0.153356,0.265068,9.504740
26.12,-0.020777,0.239139,9.477322
26.13,0.001523,0.145040,9.730729
26.14,-0.177276,0.211213,9.792377
26.15,-0.039040,0.084871,9.775312
26.16,0.038376,0.117865,9.797700
26.17,0.147728,0.038595,9.711381
26.18,-0.059708,0.225351,9.674503
26.19,0.228441,0.032281,9.562290
26.20,-0.055909,0.292094,9.650662
26.21,-0.059083,0.074120,9.527051
26.22,0.203994,0.112390,9.593496
26.23,0.041486,0.198654,9.724060
26.24,-0.053552,0.107922,9.694922
26.25,-0.009359,0.066540,10.140293
26.26,0.168180,0.095702,9.522649
26.27,0.178303,0.203369,9.693389
26.28,-0.099113,0.013174,9.511435
26.29,-0.009644,0.073977,9.656335
26.30,0.002819,0.086583,9.661912
26.31,-0.129788,0.185142,9.828681
26.32,-0.021547,0.065284,9.647350
26.33,-0.017634,0.289973,9.683437
26.34,0.115166,0.049755,9.649908
26.35,0.119872,0.035441,9.513949
26.36,-0.067854,0.038738,9.618759
26.37,-0.057319,-0.103544,9.656552
26.38,0.044813,-0.074852,9.720341
26.39,-0.108338,-0.019081,9.788253
26.40,0.029357,0.175920,9.677164
26.41,-0.054935,0.030697,9.674724
26.42,-0.163748,-0.028329,9.469149
26.43,-0.165180,0.172376,9.785674
26.44,0.120483,0.207050,9.612749
26.45,-0.074529,0.167824,9.814858
26.46,0.138826,-0.088095,9.894684
26.47,-0.121353,-0.046861,9.684265
26.48,-0.025546,0.230191,9.567642
26.49,0.227375,0.043758,9.709202
26.50,-0.183445,-0.011925,9.761620
26.51,-0.277283,0.115814,9.671155
26.52,0.117673,0.165110,9.641335
26.53,-0.114552,-0.003192,9.808698
26.54,0.015720,0.120866,9.816974
26.55,-0.001917,0.244457,9.729829
26.56,0.172686,0.043964,9.599344
26.57,0.126243,0.247328,9.980268
26.58,0.351920,0.188804,9.941710
26.59,0.598996,0.296169,10.276113
26.60,0.636930,0.453700,10.546011
26.61,0.928476,0.700730,10.636050
26.62,1.263411,0.741056,11.392972
26.63,1.456157,0.850083,12.037596
26.64,1.916441,1.091213,12.723721
26.65,2.320787,1.109478,13.369944
26.66,2.577587,1.460786,13.794752
26.67,2.870165,1.701980,14.905424
26.68,3.115446,1.702437,15.311612
26.69,3.175435,1.816356,15.428470
26.70,3.383515,1.991741,15.605840
26.71,3.425694,1.782539,15.630086
26.72,3.060614,2.138504,15.350798
26.73,2.958714,2.461225,14.660656
26.74,2.593798,2.055184,14.190249
26.75,2.346670,2.003307,13.106421
26.76,2.150587,2.023653,12.493249
26.77,1.683470,2.021477,11.682002
26.78,1.086381,1.808207,11.262212
26.79,1.060343,1.282761,11.118637
26.80,0.898540,1.448160,10.820720
26.81,0.510397,1.523030,10.287501
26.82,0.484270,1.123136,9.969081
26.83,0.148096,0.748966,9.895443
26.84,-0.047824,0.769437,9.908049
26.85,0.074612,0.442098,9.571130
26.86,-0.203937,0.618001,9.679568
26.87,-0.056101,0.244880,9.943859
26.88,0.105095,0.273535,9.587836
26.89,-0.291926,0.081840,9.625162
26.90,-0.223891,0.053511,9.730107
26.91,-0.197951,0.244588,9.767397
26.92,-0.083001,0.037164,9.640379
26.93,-0.119047,-0.074125,9.739076
26.94,0.093921,-0.168062,9.813975
26.95,0.042309,-0.272169,10.004095
26.96,-0.010661,-0.209286,9.712479
26.97,-0.050270,-0.053045,9.725052
26.98,-0.018053,0.047061,9.945371
26.99,-0.166058,-0.139416,9.655350
27.00,0.042960,0.116543,9.547539
27.01,-0.190556,-0.156393,9.768709
27.02,0.046001,-0.096214,9.885075
27.03,0.091027,-0.193821,9.785702
27.04,-0.023011,0.058541,9.722328
27.05,-0.066406,0.195669,9.533899
27.06,0.005884,-0.262837,9.729276
27.07,-0.382377,-0.088123,9.910873
27.08,0.000481,0.110195,9.566247
27.09,-0.046145,-0.210074,9.705560
27.10,-0.035331,0.036802,9.686387
27.11,0.058849,0.120700,9.643775
27.12,-0.031555,-0.011102,9.776991
27.13,-0.156028,0.050978,9.805181
27.14,-0.032769,0.201725,9.804559
27.15,-0.004273,0.229720,9.608063
27.16,0.004848,-0.006025,9.515241
27.17,0.013933,-0.056974,9.783283
27.18,0.122680,-0.098001,9.676598
27.19,-0.128913,0.135092,10.005677
27.20,0.025949,-0.141335,10.013038
27.21,0.163105,-0.001658,10.028805
27.22,-0.196402,0.046287,9.619403
27.23,0.036733,-0.021155,9.831647
27.24,-0.051664,0.077943,9.874793
27.25,-0.022520,0.357172,9.859961
27.26,-0.083254,0.039800,9.705115
27.27,0.008304,0.006990,9.934760
27.28,0.252894,0.185802,9.756696
27.29,-0.116533,0.097300,9.775524
27.30,-0.101942,0.245714,9.543259
27.31,-0.114654,0.097047,9.849796
27.32,0.251986,0.051601,9.724051
27.33,-0.007721,-0.128678,9.826564
27.34,0.047690,-0.105223,9.795403
27.35,0.005379,-0.127549,9.788816
27.36,-0.056735,0.141650,9.758089
27.37,0.031192,-0.064148,9.875623
27.38,0.357143,0.252974,9.738670
27.39,0.231872,0.108703,9.563808
27.40,-0.034937,0.078318,9.848216
27.41,0.147636,0.008679,9.656334
27.42,-0.027427,0.186702,9.585235
27.43,-0.138467,0.017345,9.628560
27.44,0.199291,-0.002747,9.812387
27.45,0.218321,0.259472,9.760260
27.46,0.206703,0.160550,9.476253
27.47,0.026762,0.090681,9.722178
27.48,0.065003,0.196472,9.940648
27.49,0.176756,0.120948,9.714843
27.50,0.135428,0.165962,9.755932
27.51,0.042772,0.021850,9.926195
27.52,-0.102829,0.367938,9.892626
27.53,0.106467,0.049304,9.925387
27.54,0.223515,0.304698,9.395273
27.55,-0.048557,0.094182,10.027216
27.56,0.172810,0.212322,9.874714
27.57,0.136835,0.201958,10.131323
27.58,0.187843,0.249615,9.678292
27.59,0.203120,0.009024,9.542039
27.60,0.015688,0.236650,9.791040
27.61,-0.094589,0.326595,9.752586
27.62,0.035728,0.071206,9.883763
27.63,0.206630,0.103427,9.943854
27.64,0.034959,0.033252,9.782260
27.65,0.016660,0.051095,9.761900
27.66,-0.118790,0.294445,9.869900
27.67,0.309797,-0.035214,9.761955
27.68,0.198154,-0.031720,9.751367
27.69,0.190926,0.270511,9.945288
27.70,0.214018,0.147855,9.977584
27.71,0.166331,0.322907,9.954097
27.72,0.066927,0.009819,9.779918
27.73,0.075599,0.074300,9.505029
27.74,0.042834,-0.024984,9.784980
27.75,0.409089,0.066529,9.700742
27.76,0.158298,-0.168626,9.789828
27.77,0.034490,0.121300,9.715168
27.78,0.144457,0.072679,9.807348
27.79,-0.034362,0.021641,9.665884
27.80,0.265724,-0.023670,9.633213
27.81,0.003994,-0.089620,9.984820
27.82,0.141492,0.099616,9.679021
27.83,0.207222,-0.133726,9.815949
27.84,0.123325,0.062732,9.950663
27.85,0.086245,0.244735,9.946162
27.86,0.073871,0.168569,9.930564
27.87,0.063382,-0.195783,9.862812
27.88,-0.001553,-0.085018,9.922896
27.89,0.011128,0.024566,10.014890
27.90,0.239954,-0.039786,9.883282
27.91,0.046642,-0.204559,9.567690
27.92,-0.037438,0.004407,9.752021
27.93,-0.007974,-0.048146,9.924623
27.94,0.183086,0.177760,9.740451
27.95,0.129112,-0.087251,10.056170
27.96,0.112220,0.078512,9.821618
27.97,0.010965,-0.218355,9.843504
27.98,0.107509,-0.194182,9.990136
27.99,-0.041731,0.011412,9.808173
28.00,0.001091,0.050652,9.859548
28.01,0.145332,-0.198324,9.961840
28.02,0.130544,-0.084412,9.630935
28.03,-0.095553,-0.256770,9.798199
28.04,-0.083769,-0.116212,9.955305
28.05,0.028535,0.002685,9.849488
28.06,0.219204,-0.153006,10.046806
28.07,-0.221236,-0.133531,9.621822
28.08,0.038586,-0.241814,9.606919
28.09,-0.163390,-0.186365,9.952338
28.10,-0.077833,0.100388,9.966854
28.11,-0.048882,-0.103511,9.819641
28.12,-0.059024,-0.233802,9.903801
28.13,-0.075983,-0.152053,9.953122
28.14,-0.014337,-0.306080,9.735897
28.15,-0.082543,-0.235358,9.751928
28.16,-0.196626,0.051414,9.878516
28.17,0.070148,-0.125631,9.979644
28.18,0.065487,0.123584,9.691079
28.19,0.076377,-0.106968,9.828124
28.20,-0.207236,-0.088744,9.823778
28.21,0.019762,0.007853,9.919865
28.22,0.077024,-0.368984,9.865940
28.23,-0.107307,0.003820,9.801053
28.24,0.050188,0.009035,10.070583
28.25,0.084396,0.238676,9.852062
28.26,0.390557,0.232897,9.940027
28.27,0.499242,0.050734,9.844313
28.28,0.200754,0.419636,10.100696
28.29,0.870191,0.337997,10.470525
28.30,0.672908,0.375336,10.722584
28.31,1.153852,0.637126,11.137948
28.32,1.444090,0.732828,11.612913
28.33,1.529486,1.097481,12.412620
28.34,2.046491,1.118415,12.685200
28.35,2.312550,1.271865,13.282758
28.36,2.709725,1.525039,14.081008
28.37,2.946811,1.712531,14.785192
28.38,3.276503,1.828657,15.275257
28.39,3.276971,2.041155,15.768144
28.40,3.292915,2.057514,16.050077
28.41,3.396037,2.090938,15.972308
28.42,3.195765,2.274877,15.485715
28.43,2.996721,2.137298,15.188654
28.44,2.549838,2.140092,14.185089
28.45,2.183032,2.297241,13.289543
28.46,1.898828,2.208799,12.947685
28.47,1.550798,1.909335,11.874996
28.48,1.395000,1.729414,11.443853
28.49,1.123047,1.815797,11.142326
28.50,0.730644,1.581333,10.680575
28.51,0.705962,1.362725,10.390463
28.52,0.524877,1.125769,10.055924
28.53,0.254593,1.048523,10.087949
28.54,0.024904,0.859209,10.145477
28.55,0.238431,0.646986,9.956099
28.56,-0.010134,0.620930,9.806995
28.57,-0.023196,0.530986,9.731959
28.58,-0.102429,0.363005,9.784644
28.59,-0.183206,0.440233,9.948793
28.60,-0.261577,0.424010,9.940274
28.61,-0.014444,0.335853,9.779643
28.62,-0.186966,0.147441,9.582357
28.63,0.273174,0.241819,9.951093
28.64,-0.224343,0.138829,9.767159
28.65,-0.244344,-0.034117,9.989899
28.66,-0.031303,0.184622,9.788179
28.67,0.092192,0.115029,9.756331
28.68,-0.082196,0.405234,9.916676
28.69,-0.019753,0.267529,10.225895
28.70,-0.307999,0.178155,10.001257
28.71,-0.166314,0.123909,9.916027
28.72,-0.211980,0.115513,9.947749
28.73,-0.308584,-0.022324,9.652895
28.74,-0.065075,-0.108107,9.741454
28.75,-0.346092,-0.001625,9.547571
28.76,-0.233364,0.099828,10.141791
28.77,-0.136822,-0.144748,10.113939
28.78,-0.169685,0.044806,9.955584
28.79,-0.019850,0.082432,9.919979
28.80,-0.028157,0.088107,9.684302
28.81,0.045098,0.036140,9.871272
28.82,0.030872,0.075921,10.153347
28.83,0.080298,0.324885,9.921236
28.84,-0.053947,0.198345,9.824202
28.85,-0.014355,0.052273,9.657525
28.86,0.013618,0.111679,10.097288
28.87,-0.027701,0.116603,9.894612
28.88,-0.089246,0.027713,9.658847
28.89,-0.078309,0.027188,9.775747
28.90,-0.133310,0.240111,9.726631
28.91,0.018646,0.067588,9.887372
28.92,-0.039936,-0.014535,9.935161
28.93,-0.104908,0.110273,9.835989
28.94,-0.101439,0.127988,10.015519
28.95,-0.163834,-0.124759,9.918045
28.96,0.102281,0.104979,10.056005
28.97,-0.002322,0.211698,9.857529
28.98,-0.111854,0.159133,10.334125
28.99,0.092156,0.369786,9.828982
29.00,-0.068670,0.249353,9.781763
29.01,-0.166740,0.269893,9.764752
29.02,0.128039,0.428630,9.879096
29.03,-0.055512,0.180003,9.668073
29.04,-0.036693,0.104809,9.950214
29.05,0.020738,0.198127,9.642388
29.06,0.156309,0.010037,9.931907
29.07,0.024982,0.085772,9.720228
29.08,-0.117964,-0.009327,9.856139
29.09,0.094517,0.111566,9.994260
29.10,-0.025661,-0.019148,10.232281
29.11,0.262337,-0.028202,9.758875
29.12,0.038856,0.098881,9.888816
29.13,-0.226055,0.027670,9.808588
29.14,0.088141,-0.192269,9.788173
29.15,0.281663,-0.140877,9.809886
29.16,0.240418,-0.109197,10.025366
29.17,0.273957,-0.082857,9.841671
29.18,-0.065259,0.067407,10.224892
29.19,0.169373,0.038488,9.968202
29.20,-0.023994,0.134563,9.768527
29.21,0.092215,0.091565,9.858541
29.22,-0.084876,0.124354,9.797560
29.23,-0.006960,0.063239,10.021753
29.24,-0.008362,0.009919,9.680227
29.25,0.182940,0.111238,9.721823
29.26,0.173436,0.084248,9.826627
29.27,0.112711,0.013706,10.004930
29.28,-0.080509,0.115827,10.081808
29.29,0.046096,-0.323397,10.102305
29.30,-0.004189,-0.081869,9.983037
29.31,0.191456,-0.088721,9.897084
29.32,0.230123,0.081392,10.019748
29.33,0.217046,0.126854,9.748069
29.34,0.001086,-0.240389,9.649833
29.35,-0.235709,0.098458,9.968987
29.36,-0.117790,-0.215820,9.766824
29.37,0.265940,-0.216400,9.898225
29.38,0.048179,-0.111608,9.923851
29.39,0.007113,-0.125542,9.941564
29.40,0.295073,-0.278048,10.037829
29.41,0.250410,-0.016542,10.022728
29.42,0.102044,-0.016289,9.933224
29.43,0.064302,0.025584,9.843716
29.44,0.083940,-0.155788,9.920346
29.45,0.127215,-0.111177,9.821440
29.46,0.292005,-0.112508,9.877047
29.47,0.150619,0.091501,10.270717
29.48,0.186851,-0.453135,9.929293
29.49,0.239726,-0.229588,9.966422
29.50,-0.041381,-0.115578,9.804210
29.51,0.189013,-0.247755,10.045366
29.52,0.062412,-0.149482,10.008559
29.53,-0.204956,-0.134360,10.009105
29.54,-0.159307,-0.198650,9.931303
29.55,-0.027116,-0.112236,10.045535
29.56,0.157675,-0.044587,10.078303
29.57,0.106342,-0.148057,9.939409
29.58,0.113458,-0.173576,9.883225
29.59,0.323986,-0.138322,10.023996
29.60,-0.063987,-0.118311,9.771652
29.61,0.083338,-0.324999,9.797177
29.62,0.121384,-0.059271,9.889680
29.63,-0.005380,-0.167033,9.652792
29.64,0.084394,0.040453,10.011874
29.65,-0.113073,-0.037790,9.760620
29.66,0.245940,0.034135,9.828826
29.67,-0.007303,-0.224926,9.864371
29.68,0.315909,-0.145287,9.899115
29.69,0.065809,-0.246719,9.844878
29.70,0.190553,-0.178945,9.882921
29.71,0.058191,0.059432,9.883359
29.72,0.058222,0.091369,9.828465
29.73,-0.010923,-0.221030,9.782134
29.74,0.070635,-0.134198,10.041110
29.75,0.091612,-0.084131,9.594399
29.76,-0.043611,-0.000341,9.859517
29.77,0.032482,-0.277268,9.821963
29.78,-0.028793,-0.253788,9.945522
29.79,0.317256,0.002118,9.682562
29.80,0.027358,-0.285611,9.815455
29.81,0.220336,-0.100323,9.870347
29.82,0.008175,-0.022139,10.033731
29.83,0.059468,0.013494,9.929660
29.84,-0.133540,-0.048110,9.716690
29.85,-0.031986,-0.069648,9.813347
29.86,0.043541,0.080992,10.004847
29.87,0.205190,0.019312,9.711888
29.88,0.038082,-0.087079,9.868174
29.89,0.174051,0.000584,9.877086
29.90,0.081443,0.047541,9.823524
29.91,0.196390,0.213250,10.254100
29.92,-0.009439,0.106905,9.818066
29.93,0.281020,0.163752,9.937960
29.94,-0.067500,-0.049847,9.766847
29.95,-0.104662,-0.034104,9.947142
29.96,-0.161313,0.005863,9.994287
29.97,0.260216,0.022119,9.789174
29.98,0.075450,-0.076458,9.862935
29.99,-0.066328,0.201480,9.744351
30.00,0.120331,0.160528,9.708562
30.01,0.049688,0.022689,10.013011
30.02,0.199856,0.141095,9.789374
30.03,-0.225020,0.095421,9.528095
30.04,-0.074277,0.159493,10.112210
30.05,-0.101040,-0.083917,9.751819
30.06,-0.285428,0.064043,9.828665
30.07,0.075663,0.078510,10.091923
30.08,-0.086954,0.164084,9.841384
30.09,0.031386,0.017418,9.837387
30.10,0.223007,-0.203772,9.687329
30.11,-0.105279,-0.030398,9.629409
30.12,-0.116077,0.095058,9.833998
30.13,-0.053869,0.112812,9.907086
30.14,0.047872,0.309737,9.898061
30.15,-0.141008,0.179931,9.786899
30.16,-0.151036,0.121868,9.856095
30.17,0.049315,0.110045,9.595027
30.18,-0.034247,0.248042,9.915632
30.19,-0.327091,0.046091,9.872772
30.20,-0.230713,0.101189,10.125450
30.21,0.094640,-0.011817,9.849141
30.22,-0.039017,0.289783,9.715072
30.23,-0.180348,0.166983,9.838892
30.24,-0.110864,0.035097,9.799044
30.25,-0.090248,0.106130,9.904733
30.26,-0.004861,0.180635,9.846572
30.27,-0.257342,0.088751,9.665345
30.28,-0.196353,0.053812,9.611659
30.29,-0.063659,0.038299,9.876391
30.30,-0.109253,0.156104,10.032138
30.31,-0.029393,0.070837,9.848525
30.32,-0.246183,0.057487,9.950188
30.33,-0.056296,-0.050489,9.977027
30.34,0.031449,0.116823,9.871489
30.35,-0.041394,0.083202,9.719010
30.36,-0.083271,0.063573,9.859280
30.37,-0.111503,0.123030,9.999822
30.38,-0.200092,0.185736,9.903909
30.39,-0.108344,0.176760,9.933369
30.40,0.051786,0.155302,9.762746
30.41,-0.113219,0.056310,9.798058
30.42,-0.205150,0.013188,9.808649
30.43,-0.156763,-0.048174,9.816965
30.44,-0.072796,0.001626,9.986546
30.45,-0.140808,0.070725,9.493305
30.46,-0.036723,-0.030560,9.825061
30.47,-0.031078,0.070630,9.808532
30.48,0.014112,-0.061539,9.626525
30.49,0.079627,-0.149860,9.911455
30.50,0.029781,0.142898,9.714849
30.51,-0.200236,-0.017229,9.765166
30.52,-0.194833,-0.065519,10.072851
30.53,-0.093642,-0.100916,9.954289
30.54,-0.136654,0.076873,9.892195
30.55,-0.216832,0.187403,9.863959
30.56,-0.130590,-0.028833,9.786502
30.57,-0.131300,-0.008024,10.088432
30.58,-0.150810,0.146416,9.919914
30.59,-0.102381,-0.197164,9.702055
30.60,0.085078,0.261463,9.610974
30.61,-0.020452,0.328122,9.887595
30.62,0.270040,-0.275350,9.804099
30.63,0.020211,0.058805,9.620071
30.64,0.003407,0.013321,9.896322
30.65,0.093801,0.106484,9.828329
30.66,0.201070,0.137895,9.991555
30.67,0.327159,0.348066,10.063221
30.68,0.662134,0.313725,10.047624
30.69,0.487744,0.309478,10.416981
30.70,0.909873,0.505074,10.536041
30.71,1.090914,0.709579,10.919410
30.72,1.174636,0.641839,11.385215
30.73,1.782673,0.734380,12.200602
30.74,2.186267,1.328030,12.670524
30.75,2.275024,1.173729,13.619512
30.76,2.700079,1.396378,14.393665
30.77,2.775479,1.521825,14.694185
30.78,3.050647,1.780868,14.914646
30.79,3.467736,2.056367,15.811218
30.80,3.336339,2.019275,15.734829
30.81,3.215806,1.846298,15.541544
30.82,3.243010,1.910323,15.236813
30.83,2.940468,2.043235,14.733004
30.84,2.672129,2.039605,14.316883
30.85,2.500888,1.812628,13.438883
30.86,1.935795,2.034169,12.876462
30.87,1.629314,1.694873,12.096239
30.88,1.436086,1.871365,11.399056
30.89,1.243337,1.760628,10.905813
30.90,1.022913,1.351240,10.662659
30.91,0.583364,1.267312,10.419368
30.92,0.605757,0.900604,10.246299
30.93,0.267432,0.962112,9.936575
30.94,0.482191,0.675346,9.911453
30.95,0.056051,0.464583,9.915274
30.96,0.302357,0.434376,9.747938
30.97,0.031496,0.302490,9.624466
30.98,0.331206,0.224167,9.660144
30.99,0.148321,0.297064,9.733465
31.00,-0.051151,0.022949,9.856546
31.01,0.005185,0.272331,9.937980
31.02,0.160968,-0.136600,9.570383
31.03,0.194284,0.184275,9.675404
31.04,0.060993,-0.155381,9.707870
31.05,0.076757,-0.050654,9.868232
31.06,0.164504,-0.121121,9.682066
31.07,0.091479,-0.111083,9.694885
31.08,-0.077411,0.022058,9.556426
31.09,-0.017655,0.104091,9.820847
31.10,0.110131,0.067059,9.729647
31.11,0.229701,-0.122918,9.659757
31.12,0.279591,-0.049735,9.714079
31.13,0.180946,-0.162457,9.907286
31.14,0.123503,-0.183806,9.607926
31.15,0.180406,-0.198182,9.629889
31.16,0.011951,-0.108635,9.922156
31.17,0.074875,-0.021443,9.756576
31.18,-0.004442,-0.275903,9.838869
31.19,-0.054317,-0.046994,9.800492
31.20,0.136522,0.145659,9.738452
31.21,0.119607,0.103626,9.693798
31.22,0.180596,-0.095891,9.858147
31.23,0.164227,-0.187899,9.903634
31.24,0.128309,0.040346,9.891880
31.25,0.166365,-0.287451,9.573323
31.26,0.094709,0.129353,9.921182
31.27,0.149519,-0.023993,9.687597
31.28,0.012857,0.226893,9.631227
31.29,0.144261,-0.194614,9.712458
31.30,0.179890,0.128257,9.851764
31.31,0.018982,0.011439,9.810322
31.32,0.105109,-0.010855,9.698165
31.33,0.023484,-0.130200,9.850463
31.34,0.034445,0.110909,9.752051
31.35,-0.038172,0.125711,9.651545
31.36,0.247790,0.263851,9.631937
31.37,0.222743,0.175559,9.787805
31.38,0.158203,-0.011832,9.718141
31.39,0.329112,-0.056311,9.536454
31.40,0.068367,-0.095484,9.846969
31.41,0.453407,0.249960,9.660480
31.42,0.060704,-0.015924,9.949977
31.43,0.116937,0.259206,9.530035
31.44,0.036785,0.148536,9.700538
31.45,0.127300,0.128885,9.627235
31.46,0.180899,0.056054,9.588078
31.47,0.064863,0.175546,9.655903
31.48,0.289554,0.097592,9.971361
31.49,0.102768,0.058118,9.742992
31.50,0.104163,0.188703,9.611530
31.51,-0.039826,0.090444,9.465822
31.52,0.116940,0.014231,9.480311
31.53,0.048023,0.184091,9.645681
31.54,-0.011572,0.106277,9.631564
31.55,-0.034524,0.174229,9.688420
31.56,0.376431,0.062458,9.401199
31.57,0.021303,-0.027058,9.705998
31.58,-0.124882,0.327113,9.862257
31.59,-0.036853,0.305115,9.945125
31.60,0.037667,0.225942,9.452270
31.61,0.106324,0.073465,9.604874
31.62,0.104119,0.083827,9.597064
31.63,0.115513,0.285357,9.736658
31.64,-0.046330,0.076383,9.545101
31.65,0.068603,0.042056,9.951011
31.66,-0.080712,0.341512,9.721223
31.67,-0.053307,0.109775,9.697538
31.68,-0.092464,0.326144,9.937419
31.69,-0.128353,-0.055633,9.711865
31.70,0.138537,0.172434,9.769840
31.71,0.090040,0.356741,9.608383
31.72,0.121191,0.109690,9.521335
31.73,0.005327,0.072395,9.627479
31.74,0.090519,-0.037912,10.018846
31.75,-0.217211,0.230624,9.801054
31.76,0.094833,0.007504,9.750662
31.77,0.010135,0.088735,9.575400
31.78,0.062620,-0.046339,9.839675
31.79,0.032918,0.292435,9.522331
31.80,-0.128798,0.250899,9.493956
31.81,-0.184011,0.119087,9.637300
31.82,-0.077828,-0.000053,9.993820
31.83,0.095776,0.344650,9.995074
31.84,0.143269,0.146130,9.683380
31.85,-0.054624,0.096502,9.682836
31.86,0.062743,0.067747,9.599852
31.87,0.192273,0.264277,9.925563
31.88,0.368129,0.243662,10.069756
31.89,0.417760,0.434690,10.354257
31.90,0.622120,0.705171,10.649637
31.91,0.947315,0.692139,10.869829
31.92,1.347466,0.915038,11.456106
31.93,1.516493,0.932499,11.863790
31.94,1.982296,1.182810,12.705701
31.95,2.461063,1.565953,13.278173
31.96,2.495252,1.454026,14.131234
31.97,2.902285,1.696860,14.774653
31.98,3.263501,1.606416,15.258411
31.99,3.224969,2.103074,15.702560
32.00,3.251098,1.967132,15.490341
32.01,3.410640,2.226807,15.442378
32.02,3.095510,2.131252,15.211255
32.03,3.047197,2.231346,14.520032
32.04,2.686429,2.216249,14.010517
32.05,2.272292,2.025858,13.297447
32.06,2.029086,2.124592,12.814722
32.07,1.667911,1.788572,11.982828
32.08,1.426912,1.836530,11.523517
32.09,0.943460,1.542819,10.940979
32.10,0.757118,1.466852,10.448562
32.11,0.529359,1.199362,10.263998
32.12,0.447221,1.090807,10.150893
32.13,0.103997,0.790809,10.083555
32.14,0.246770,0.793399,9.812959
32.15,0.106114,0.624918,9.548693
32.16,-0.160508,0.424791,9.508321
32.17,0.106557,0.368197,9.686071
32.18,0.205883,0.291559,9.395424
32.19,0.042823,0.117278,9.969537
32.20,0.084501,0.105702,9.799731
32.21,-0.081972,-0.056750,9.626369
32.22,-0.294595,0.299504,9.559841
32.23,-0.317945,0.108957,9.859259
32.24,-0.066508,-0.013341,9.559685
32.25,-0.168018,0.073283,9.573383
32.26,-0.206205,-0.320735,9.609077
32.27,-0.103201,-0.401730,9.732677
32.28,-0.020827,-0.150986,9.804028
32.29,-0.267903,-0.274214,9.884514
32.30,-0.146181,-0.140958,9.864273
32.31,0.090244,-0.090203,9.718534
32.32,-0.218488,-0.005643,9.861759
32.33,0.016514,-0.253053,9.625417
32.34,-0.144323,-0.068225,9.464920
32.35,-0.018854,-0.113657,9.626378
32.36,0.049236,-0.072467,9.607966
32.37,0.008515,-0.174972,9.632882
32.38,0.030761,0.055256,9.587577
32.39,-0.214335,-0.120986,9.657875
32.40,0.059780,0.106749,9.809784
32.41,-0.173809,-0.198349,9.963680
32.42,-0.037882,-0.011484,9.482570
32.43,-0.035496,-0.104688,9.544420
32.44,-0.005650,-0.133553,9.614496
32.45,-0.020733,-0.014842,9.833109
32.46,-0.159656,-0.122925,9.697830
32.47,-0.217543,-0.402581,9.625776
32.48,0.052029,-0.446635,9.828132
32.49,-0.027384,0.077821,9.862333
32.50,0.091269,0.077140,9.726472
32.51,-0.048940,0.160517,9.615498
32.52,-0.209056,-0.063402,9.768288
32.53,0.078683,-0.211620,9.698481
32.54,-0.078468,-0.101941,9.698097
32.55,0.010286,-0.045198,9.660814
32.56,-0.105144,-0.162293,9.862768
32.57,0.173207,0.161587,9.768983
32.58,-0.125930,0.237782,9.879738
32.59,-0.057841,0.031784,9.922575
32.60,-0.001043,-0.021511,9.800506
32.61,-0.141569,-0.170159,9.666110
32.62,0.032597,0.176285,9.883441
32.63,0.189815,0.005365,9.803775
32.64,-0.059015,-0.032988,10.103850
32.65,0.050713,0.064952,9.783598
32.66,-0.323185,-0.057589,9.838674
32.67,0.005519,0.035779,9.782480
32.68,-0.023944,-0.149522,9.728778
32.69,-0.081184,0.159394,9.707262
32.70,0.150204,0.021724,9.785536
32.71,-0.015349,0.178547,9.818163
32.72,0.005845,0.020508,9.907678
32.73,-0.014812,0.033361,9.790177
32.74,-0.196294,-0.090818,9.683015
32.75,-0.098882,0.150672,9.702950
32.76,0.155476,-0.040884,9.564396
32.77,-0.209909,0.010427,9.983082
32.78,-0.045584,0.073359,9.675661
32.79,0.001441,0.092062,9.887787
32.80,0.261616,-0.123098,9.791990
32.81,0.147526,0.057884,9.796731
32.82,-0.008721,0.184775,9.738708
32.83,0.217458,0.047526,9.645808
32.84,-0.025242,0.069342,9.621460
32.85,0.187339,0.118980,10.000003
32.86,-0.094269,0.087347,9.774942
32.87,0.200053,-0.018443,9.917501
32.88,0.024908,0.103392,9.954833
32.89,-0.047483,0.229350,9.704416
32.90,0.052083,-0.014003,9.822220
32.91,0.113531,0.069041,9.770232
32.92,0.022893,-0.050215,9.602927
32.93,0.150653,0.229904,9.739982
32.94,0.016034,0.106967,9.849219
32.95,0.162150,0.016890,9.698127
32.96,0.142379,0.130599,9.723542
32.97,0.083503,-0.024542,9.745783
32.98,0.039240,-0.004020,10.066708
32.99,0.111673,-0.055359,9.515372
33.00,0.160689,-0.008551,9.843418
33.01,0.343132,0.281697,9.738774
33.02,0.209390,0.029947,9.685608
33.03,0.214606,0.172724,9.737460
33.04,0.468820,0.015031,9.870863
33.05,0.160708,0.204899,9.879935
33.06,0.157426,-0.011246,9.805619
33.07,0.184109,0.114484,9.933640
33.08,-0.021210,0.113782,9.959376
33.09,0.046717,0.384212,9.897118
33.10,0.039245,0.177742,9.707449
33.11,0.177579,0.027944,9.854231
33.12,0.078726,0.178091,9.855994
33.13,0.115857,0.349057,9.673017
33.14,0.229288,-0.106684,9.568587
33.15,0.201778,-0.016016,9.506225
33.16,0.078082,0.052684,9.800302
33.17,0.016261,0.026921,9.833358
33.18,0.231950,0.032739,9.627296
33.19,0.187527,-0.088293,9.940305
33.20,-0.099261,0.232091,9.816288
33.21,0.054629,-0.111829,9.985020
33.22,0.110677,0.030002,9.849092
33.23,0.182774,0.174558,9.649053
33.24,0.196919,0.040363,9.863623
33.25,0.120064,-0.078707,9.894405
33.26,0.154410,-0.128268,9.725048
33.27,0.089962,0.000655,9.600950
33.28,-0.000610,-0.067966,9.818013
33.29,0.046791,0.042080,9.664983
33.30,0.078219,-0.156184,9.963155
33.31,0.069485,0.104068,9.750357
33.32,-0.155003,0.014868,10.049936
33.33,0.021101,0.018280,9.512241
33.34,0.072995,0.162935,9.829625
33.35,0.029859,-0.068002,10.012000
33.36,0.031301,-0.108005,9.688373
33.37,0.116702,-0.092034,9.791858
33.38,-0.074177,-0.054746,9.758850
33.39,-0.142979,-0.047833,9.720677
33.40,0.007631,-0.141798,9.851780
33.41,0.138072,-0.289992,9.637301
33.42,0.245796,-0.119542,9.804250
33.43,0.134004,-0.013950,9.893150
33.44,-0.139231,-0.045557,9.791921
33.45,0.005844,0.077391,9.683128
33.46,0.061251,0.163594,9.968503
33.47,0.048457,0.015697,9.927631
33.48,0.088521,0.086279,9.680745
33.49,-0.089611,0.008357,9.646451
33.50,0.024833,0.117675,9.695469
33.51,0.064064,0.130917,9.906186
33.52,0.109275,0.019474,9.869535
33.53,-0.089935,-0.013182,9.942671
33.54,-0.038119,-0.125651,9.787500
33.55,-0.324613,-0.108847,9.704797
33.56,-0.078185,-0.147072,9.963994
33.57,-0.069990,-0.034402,9.758965
33.58,-0.132853,-0.197585,9.863654
33.59,0.005941,-0.136034,9.621633
33.60,-0.024059,-0.397441,9.759931
33.61,-0.291843,0.090472,9.982098
33.62,0.001756,-0.143990,9.741578
33.63,-0.138843,-0.063849,9.956957
33.64,0.027533,0.055678,9.517649
33.65,-0.187842,-0.083707,9.766739
33.66,-0.033647,0.053344,9.822121
33.67,-0.074412,-0.268967,10.091118
33.68,-0.007196,0.167997,9.684541
33.69,-0.031688,0.011287,9.943192
33.70,-0.080300,-0.093289,9.998261
33.71,-0.237002,0.053638,9.750315
33.72,-0.232820,-0.256339,9.800057
33.73,-0.128461,-0.149224,9.873200
33.74,-0.062158,0.060474,9.646981
33.75,-0.136851,-0.334892,9.791685
33.76,0.008543,-0.041366,10.035060
33.77,-0.102530,-0.042307,9.930574
33.78,-0.187284,0.132816,9.836450
33.79,-0.107227,-0.290552,9.875212
33.80,-0.049038,0.095665,9.941689
33.81,-0.039349,-0.161316,9.969474
33.82,0.144969,-0.144310,9.784405
33.83,-0.162710,-0.233606,10.078125
33.84,-0.093165,-0.213618,10.048507
33.85,-0.035018,-0.030584,9.959981
33.86,-0.090666,-0.208241,9.748090
33.87,-0.149527,0.018492,9.724206
33.88,-0.276853,-0.145304,9.822238
33.89,-0.153622,-0.206535,9.877387
33.90,-0.222431,-0.119331,9.622202
33.91,-0.301923,-0.010380,9.939951
33.92,-0.191225,-0.078574,10.051834
33.93,-0.222254,-0.035328,9.953184
33.94,-0.027218,0.050458,9.778715
33.95,-0.025549,0.103817,9.763031
33.96,-0.206166,-0.055352,9.917127
33.97,-0.128343,-0.134251,9.854632
33.98,-0.318549,0.011110,9.939189
33.99,-0.151765,0.071706,9.962753
34.00,-0.038968,-0.143720,10.033332
34.01,0.021606,-0.054939,9.725168
34.02,-0.147644,-0.008847,9.920315
34.03,0.088037,0.084494,9.848534
34.04,-0.183992,0.057997,9.903729
34.05,-0.099074,0.283524,10.070137
34.06,0.210497,0.066475,10.138524
34.07,0.428274,0.142497,10.284072
34.08,0.422772,0.378823,10.281152
34.09,0.532852,0.499420,10.403635
34.10,0.489817,0.462730,10.662853
34.11,0.767747,0.696153,10.831498
34.12,1.321226,0.866269,11.743475
34.13,1.587890,1.024318,12.095196
34.14,1.840331,1.255496,12.880432
34.15,2.322912,1.328271,13.624023
34.16,2.650488,1.755182,14.073006
34.17,3.029809,1.800920,14.773475
34.18,3.150568,1.798450,15.647060
34.19,3.420448,2.042232,15.814277
34.20,3.323013,2.158481,15.811778
34.21,3.263529,2.374434,15.757188
34.22,3.270546,2.210366,15.585069
34.23,2.812032,2.394582,15.037326
34.24,2.991670,2.293157,14.047136
34.25,2.381620,2.419088,13.764058
34.26,2.044523,2.315624,12.952419
34.27,1.723883,2.077296,12.127724
34.28,1.565151,1.892199,11.399134
34.29,1.143884,1.837040,11.233242
34.30,0.603073,1.595571,10.777525
34.31,0.752598,1.654068,10.228766
34.32,0.373133,1.296752,10.204148
34.33,0.295010,1.078090,10.542270
34.34,0.030106,0.919567,10.022158
34.35,0.175861,0.688670,9.864047
34.36,-0.014474,0.774154,9.796392
34.37,0.043279,0.496837,10.168796
34.38,-0.023165,0.629911,10.030492
34.39,0.230095,0.260492,10.104456
34.40,0.230888,0.362102,9.940192
34.41,-0.003712,0.428425,10.080279
34.42,-0.001544,-0.013446,9.785825
34.43,-0.052504,0.450710,9.927503
34.44,0.127423,0.128881,9.945196
34.45,-0.041879,0.174484,10.098863
34.46,-0.049807,0.208696,9.950281
34.47,0.121491,0.213627,9.818390
34.48,-0.057159,0.148582,9.915242
34.49,0.006313,0.226715,9.671873
34.50,-0.175501,0.162112,9.581923
34.51,0.102163,0.304940,10.023521
34.52,0.253951,0.150791,9.854932
34.53,0.110958,0.318757,9.871048
34.54,0.203162,0.186251,10.024216
34.55,-0.070483,-0.143342,10.103691
34.56,0.062674,0.381929,9.983150
34.57,-0.075640,-0.005106,10.178452
34.58,0.013388,0.238437,9.979086
34.59,0.136516,0.057264,9.951194
34.60,0.059148,0.176370,9.942701
34.61,-0.119564,-0.038675,9.729226
34.62,-0.104887,0.113853,10.043172
34.63,-0.109924,0.003126,9.567091
34.64,0.117624,0.217666,9.827493
34.65,0.309080,0.075446,9.912877
34.66,0.227598,0.129692,9.799186
34.67,-0.160802,-0.247773,9.846580
34.68,0.239780,-0.003840,10.167399
34.69,0.184070,0.050193,10.064497
34.70,-0.111369,0.022258,9.813953
34.71,0.039960,0.105270,9.844251
34.72,0.209993,-0.059450,9.731219
34.73,0.146675,-0.015126,10.008695
34.74,-0.074473,0.115371,9.875016
34.75,0.157805,-0.305159,9.634645
34.76,-0.170188,0.033733,9.924018
34.77,0.061267,-0.082251,9.971311
34.78,0.226148,-0.156769,10.044626
34.79,0.093282,-0.011913,9.899437
34.80,0.032575,0.090099,9.857439
34.81,0.200431,0.062725,10.187585
34.82,0.211830,-0.082832,9.910311
34.83,0.253101,0.033964,10.009997
34.84,0.201740,0.028687,9.833579
34.85,0.227390,-0.090164,10.005545
34.86,0.186265,-0.166880,9.705000
34.87,0.130752,-0.163792,9.843917
34.88,0.110084,0.009308,9.739254
34.89,0.071208,-0.099770,9.823509
34.90,-0.045588,-0.223533,10.083051
34.91,-0.014643,-0.303248,9.822028
34.92,0.066131,-0.004105,10.008065
34.93,0.128806,-0.172180,10.119669
34.94,0.272469,-0.069337,9.903121
34.95,0.094176,0.037593,10.045828
34.96,0.219112,-0.270197,9.980758
34.97,0.227597,-0.120259,9.922400
34.98,0.069573,-0.136801,10.010824
34.99,0.167860,-0.071979,10.163040
35.00,0.066310,0.030168,9.815888
35.01,0.253112,-0.278799,9.770462
35.02,0.169566,-0.051372,9.761874
35.03,-0.050896,0.003805,10.043223
35.04,0.109933,-0.142322,10.061722
35.05,0.286804,-0.136177,9.828022
35.06,0.065656,-0.068944,9.603750
35.07,0.139399,-0.077003,9.807898
35.08,0.149345,-0.047474,9.978624
35.09,-0.042488,-0.048730,9.892132
35.10,0.141160,-0.232405,9.926259
35.11,-0.089511,0.006021,9.827268
35.12,0.000455,0.029198,10.042023
35.13,0.202307,-0.086259,9.947599
35.14,0.113634,-0.285431,9.981148
35.15,0.031804,-0.117223,9.920792
35.16,0.119354,-0.077228,9.971403
35.17,0.055926,-0.234800,9.961648
35.18,0.061929,-0.137352,9.766964
35.19,0.136449,-0.259748,9.948558
35.20,-0.032511,-0.014047,10.006564
35.21,0.056690,-0.063122,10.056885
35.22,0.011392,-0.276472,9.952822
35.23,-0.144452,-0.032576,9.758823
35.24,-0.067733,-0.077150,9.779754
35.25,0.227757,-0.003869,9.831787
35.26,0.082543,-0.108153,9.918592
35.27,-0.125695,-0.152549,9.874303
35.28,-0.154986,-0.143956,9.733431
35.29,0.013081,-0.111010,9.731921
35.30,0.210536,-0.039048,9.595606
35.31,-0.002592,-0.018343,9.451980
35.32,0.173261,-0.053699,9.869554
35.33,0.055235,-0.076261,10.212123
35.34,0.066119,-0.062227,10.138118
35.35,-0.154162,0.286314,9.748884
35.36,0.115175,-0.101624,9.906081
35.37,-0.040975,-0.070597,9.679301
35.38,0.099333,0.397125,9.699886
35.39,-0.105387,0.057884,9.715165
35.40,0.010119,-0.152752,9.850461
35.41,0.027686,0.119426,9.855697
35.42,-0.036448,-0.085483,9.915822
35.43,0.027193,0.138178,9.972487
35.44,-0.056682,0.009082,9.831657
35.45,-0.105935,-0.013143,9.883064
35.46,0.161311,0.237884,9.724028
35.47,0.091265,0.117810,9.688090
35.48,-0.129134,0.171553,9.665613
35.49,0.027207,0.111822,9.965504
35.50,-0.133254,0.011011,9.826435
35.51,-0.189369,0.142283,9.610910
35.52,0.073832,0.218458,9.863151
35.53,-0.257674,0.093798,9.696257
35.54,0.055146,0.297941,10.102646
35.55,-0.089230,0.187744,9.788251
